initial_random_seq_files,orientation_index,orientation_degrees,correct_answer_index,correct_answer_direction,arrow_color,practice_seq_files,learning_seq_files,percept_testing_seq_files,init_random_block.thisRepN,init_random_block.thisTrialN,init_random_block.thisN,init_random_block.thisIndex,init_random_trials.thisRepN,init_random_trials.thisTrialN,init_random_trials.thisN,init_random_trials.thisIndex,practice_blocks.thisRepN,practice_blocks.thisTrialN,practice_blocks.thisN,practice_blocks.thisIndex,practice_trials.thisRepN,practice_trials.thisTrialN,practice_trials.thisN,practice_trials.thisIndex,learning_trials.thisRepN,learning_trials.thisTrialN,learning_trials.thisN,learning_trials.thisIndex,learning_loop.thisRepN,learning_loop.thisTrialN,learning_loop.thisN,learning_loop.thisIndex,trials.thisRepN,trials.thisTrialN,trials.thisN,trials.thisIndex,percept_testing_trials.thisRepN,percept_testing_trials.thisTrialN,percept_testing_trials.thisN,percept_testing_trials.thisIndex,percept_testing_loop.thisRepN,percept_testing_loop.thisTrialN,percept_testing_loop.thisN,percept_testing_loop.thisIndex,thisRow.t,notes,welcomescreen.started,spaceship.started,welcometext.started,welcome_end.started,welcomescreen.stopped,welcome_end.keys,welcome_end.rt,welcome_end.duration,pre_section.started,fixation_init.started,pre_section.stopped,trial.started,arrowhead.started,key_resp.started,arrowhead.stopped,trial.stopped,key_resp.keys,key_resp.corr,key_resp.rt,key_resp.duration,fixation_feedback.started,cross.started,feedback_text.started,cross.stopped,feedback_text.stopped,fixation_feedback.stopped,RSI.started,text_2.started,text_2.stopped,RSI.stopped,post_section.started,feedback_post_section.started,key_resp_4.started,post_section.stopped,key_resp_4.keys,key_resp_4.rt,key_resp_4.duration,pratice_instruction.started,spaceship_rotated.started,rotation_instruction.started,key_resp_2.started,pratice_instruction.stopped,key_resp_2.keys,key_resp_2.rt,key_resp_2.duration,fixation_init.stopped,learning_instruction.started,spaceship_rotated01.started,rotation_instruction01.started,key_resp_02.started,learning_instruction.stopped,key_resp_02.keys,key_resp_02.rt,key_resp_02.duration,seqreport_instruction.started,seqreport_instruction_text.started,seqreport_instruction_key.started,seqreport_instruction.stopped,seqreport_instruction_key.keys,seqreport_instruction_key.rt,seqreport_instruction_key.duration,seqreport.started,seq_report_key.started,seqreport.stopped,seq_report_key.keys,seq_report_key.rt,seq_report_key.duration,seqarrow.started,arrow_report.started,seqarrow.stopped,arrow_report.stopped,key_resp.stopped,percept_testing_instruction.started,spaceship4.started,key_resp_5.started,percept_testing_instruction_text.started,percept_testing_instruction.stopped,key_resp_5.keys,key_resp_5.rt,key_resp_5.duration,fixation.started,cross_2.started,cross_2.stopped,fixation.stopped,thankyouscreen.started,text.started,key_resp_6.started,thankyouscreen.stopped,key_resp_6.keys,key_resp_6.rt,key_resp_6.duration,participant,learning_type,seqID,debug,date,expName,psychopyVersion,frameRate,expStart,
,,,,,,,,,,,,,,,,,,,,,,,,,,,,,,,,,,,,,,,,,,,,,,,0.010896599997067824,0.021846999996341765,0.021846999996341765,0.021846999996341765,70.85087090000161,space,70.81930130001274,None,,,,,,,,,,,,,,,,,,,,,,,,,,,,,,,,,,,,,,,,,,,,,,,,,,,,,,,,,,,,,,,,,,,,,,,,,,,,,,,,,,,,sub101,percept,4,0,2024-08-09_09h45.14.941,ASRT_percept,2023.2.3,60.12957923944067,2024-08-09 09h45.58.990258 +0800,
sequences/sub101_initial_random.csv,3,270,3,1,red,,,,0,0,0,0,0,0,0,0,,,,,,,,,,,,,,,,,,,,,,,,,,,,,71.98157279999577,,,,,,,,,,70.89339270000346,70.90449329998228,71.86562769999728,71.97235039999941,71.98157279999577,71.98157279999577,72.18376489999355,72.4352715999994,1,1,0.44173600000794977,None,72.43811439999263,72.46204680000665,72.46204680000665,72.94870609999634,73.4482800999831,73.43294160001096,73.43300950000412,73.4482800999831,74.14862550000544,74.13334749999922,,,,,,,,,,,,,,,,,,,,,,,,,,,,,,,,,,,,,,,,,,,,,,,,,,,,,,,,,,,,,,sub101,percept,4,0,2024-08-09_09h45.14.941,ASRT_percept,2023.2.3,60.12957923944067,2024-08-09 09h45.58.990258 +0800,
sequences/sub101_initial_random.csv,0,0,0,4,red,,,,0,0,0,0,0,1,1,1,,,,,,,,,,,,,,,,,,,,,,,,,,,,,74.14862550000544,,,,,,,,,,,,,74.13478570000734,74.14862550000544,74.14862550000544,74.3478264999867,74.53276830000686,4,1,0.3715880000090692,None,74.53370359999826,74.54700630001025,74.54700630001025,75.04759000000195,75.54774760000873,75.5328051999968,75.53287989998353,75.54774760000873,76.24908969999524,76.23298010000144,,,,,,,,,,,,,,,,,,,,,,,,,,,,,,,,,,,,,,,,,,,,,,,,,,,,,,,,,,,,,,sub101,percept,4,0,2024-08-09_09h45.14.941,ASRT_percept,2023.2.3,60.12957923944067,2024-08-09 09h45.58.990258 +0800,
sequences/sub101_initial_random.csv,1,90,1,3,red,,,,0,0,0,0,0,2,2,2,,,,,,,,,,,,,,,,,,,,,,,,,,,,,76.24908969999524,,,,,,,,,,,,,76.23523669998394,76.24908969999524,76.24908969999524,76.46359929998289,76.68410019998555,3,1,0.42630960000678897,None,76.68567459998303,76.70404680000502,76.70404680000502,77.19697230000747,77.69696880000993,77.68330219999189,77.6833922000078,77.69696880000993,78.3973994999833,78.38208260000101,,,,,,,,,,,,,,,,,,,,,,,,,,,,,,,,,,,,,,,,,,,,,,,,,,,,,,,,,,,,,,sub101,percept,4,0,2024-08-09_09h45.14.941,ASRT_percept,2023.2.3,60.12957923944067,2024-08-09 09h45.58.990258 +0800,
sequences/sub101_initial_random.csv,1,90,1,3,red,,,,0,0,0,0,0,3,3,3,,,,,,,,,,,,,,,,,,,,,,,,,,,,,78.3973994999833,,,,,,,,,,,,,78.3835817000072,78.3973994999833,78.3973994999833,78.61349479999626,78.78333929998917,3,1,0.37363839999306947,None,78.78511500000604,78.80172779998975,78.80172779998975,79.2965300999931,79.79579859998194,79.7815896999964,79.78166720000445,79.79579859998194,80.4981426000013,80.48249960000976,,,,,,,,,,,,,,,,,,,,,,,,,,,,,,,,,,,,,,,,,,,,,,,,,,,,,,,,,,,,,,sub101,percept,4,0,2024-08-09_09h45.14.941,ASRT_percept,2023.2.3,60.12957923944067,2024-08-09 09h45.58.990258 +0800,
sequences/sub101_initial_random.csv,0,0,0,4,red,,,,0,0,0,0,0,4,4,4,,,,,,,,,,,,,,,,,,,,,,,,,,,,,80.4981426000013,,,,,,,,,,,,,80.48396690000664,80.4981426000013,80.4981426000013,80.71258809999563,80.84969339999952,4,1,0.341142299992498,None,80.85127590000047,80.86291130000609,80.86291130000609,81.36258439999074,81.86222549999366,81.84774389999802,81.84782399999676,81.86222549999366,82.5639053999912,82.54831990000093,,,,,,,,,,,,,,,,,,,,,,,,,,,,,,,,,,,,,,,,,,,,,,,,,,,,,,,,,,,,,,sub101,percept,4,0,2024-08-09_09h45.14.941,ASRT_percept,2023.2.3,60.12957923944067,2024-08-09 09h45.58.990258 +0800,
sequences/sub101_initial_random.csv,0,0,0,4,red,,,,0,0,0,0,0,5,5,5,,,,,,,,,,,,,,,,,,,,,,,,,,,,,82.5639053999912,,,,,,,,,,,,,82.54976930000703,82.5639053999912,82.5639053999912,82.77835730000515,82.96604480000678,4,1,0.3941247999900952,None,82.96767220000038,82.9898806999845,82.9898806999845,83.47803820000263,83.97844469998381,83.96419500000775,83.9646691000089,83.97844469998381,84.68044799999916,84.66340769999078,,,,,,,,,,,,,,,,,,,,,,,,,,,,,,,,,,,,,,,,,,,,,,,,,,,,,,,,,,,,,,sub101,percept,4,0,2024-08-09_09h45.14.941,ASRT_percept,2023.2.3,60.12957923944067,2024-08-09 09h45.58.990258 +0800,
sequences/sub101_initial_random.csv,3,270,3,1,red,,,,0,0,0,0,0,6,6,6,,,,,,,,,,,,,,,,,,,,,,,,,,,,,84.68044799999916,,,,,,,,,,,,,84.66525960000581,84.68044799999916,84.68044799999916,84.89453079999657,85.06495189998532,1,1,0.37147990000084974,None,85.06653539999388,85.08187649998581,85.08187649998581,85.57769079998252,86.07749160000822,86.0631577000022,86.0632334999973,86.07749160000822,86.778261200001,86.76217709999764,,,,,,,,,,,,,,,,,,,,,,,,,,,,,,,,,,,,,,,,,,,,,,,,,,,,,,,,,,,,,,sub101,percept,4,0,2024-08-09_09h45.14.941,ASRT_percept,2023.2.3,60.12957923944067,2024-08-09 09h45.58.990258 +0800,
sequences/sub101_initial_random.csv,0,0,0,4,red,,,,0,0,0,0,0,7,7,7,,,,,,,,,,,,,,,,,,,,,,,,,,,,,86.778261200001,,,,,,,,,,,,,86.7638076999865,86.778261200001,86.778261200001,86.97720170000684,87.16485539998394,4,1,0.36834040001849644,None,87.16648809998878,87.18409470000188,87.18409470000188,87.67734669998754,88.1768691999896,88.16271400000551,88.16278980000061,88.1768691999896,88.87819119999767,88.86214469998959,,,,,,,,,,,,,,,,,,,,,,,,,,,,,,,,,,,,,,,,,,,,,,,,,,,,,,,,,,,,,,sub101,percept,4,0,2024-08-09_09h45.14.941,ASRT_percept,2023.2.3,60.12957923944067,2024-08-09 09h45.58.990258 +0800,
sequences/sub101_initial_random.csv,3,270,3,1,red,,,,0,0,0,0,0,8,8,8,,,,,,,,,,,,,,,,,,,,,,,,,,,,,88.87819119999767,,,,,,,,,,,,,88.86418219999177,88.87819119999767,88.87819119999767,89.07662159999018,89.23361969998223,1,1,0.34967940000933595,None,89.2353160000057,89.25310010000248,89.25310010000248,89.74312790000113,90.24253630000749,90.22796899999958,90.22805020000669,90.24253630000749,90.9422421999916,90.92878560000099,,,,,,,,,,,,,,,,,,,,,,,,,,,,,,,,,,,,,,,,,,,,,,,,,,,,,,,,,,,,,,sub101,percept,4,0,2024-08-09_09h45.14.941,ASRT_percept,2023.2.3,60.12957923944067,2024-08-09 09h45.58.990258 +0800,
sequences/sub101_initial_random.csv,0,0,0,4,red,,,,0,0,0,0,0,9,9,9,,,,,,,,,,,,,,,,,,,,,,,,,,,,,90.9422421999916,,,,,,,,,,,,,90.93021940000472,90.9422421999916,90.9422421999916,91.14239329998964,91.31326470000204,4,1,0.356323899992276,None,91.31487149998429,91.33059189998312,91.33059189998312,91.82558340000105,92.32557749998523,92.31146649998846,92.31155359998229,92.32557749998523,93.0272982000024,93.01114919999964,,,,,,,,,,,,,,,,,,,,,,,,,,,,,,,,,,,,,,,,,,,,,,,,,,,,,,,,,,,,,,sub101,percept,4,0,2024-08-09_09h45.14.941,ASRT_percept,2023.2.3,60.12957923944067,2024-08-09 09h45.58.990258 +0800,
sequences/sub101_initial_random.csv,0,0,0,4,red,,,,0,0,0,0,0,10,10,10,,,,,,,,,,,,,,,,,,,,,,,,,,,,,93.0272982000024,,,,,,,,,,,,,93.01309999998193,93.0272982000024,93.0272982000024,93.24215909998748,93.3800932999875,4,1,0.3402096999925561,None,93.38211720000254,93.39603050000733,93.39603050000733,93.89151779998792,94.39133819998824,94.37847789999796,94.37856389998342,94.39133819998824,95.09224619998713,95.07683320000069,,,,,,,,,,,,,,,,,,,,,,,,,,,,,,,,,,,,,,,,,,,,,,,,,,,,,,,,,,,,,,sub101,percept,4,0,2024-08-09_09h45.14.941,ASRT_percept,2023.2.3,60.12957923944067,2024-08-09 09h45.58.990258 +0800,
sequences/sub101_initial_random.csv,0,0,0,4,red,,,,0,0,0,0,0,11,11,11,,,,,,,,,,,,,,,,,,,,,,,,,,,,,95.09224619998713,,,,,,,,,,,,,95.07810029998654,95.09224619998713,95.09224619998713,95.29147649998777,95.38202839999576,4,1,0.2841720999858808,None,95.3835764999967,95.39857819999452,95.39857819999452,95.8911378000048,96.39106980001088,96.37660489999689,96.37667840000358,96.39106980001088,97.09125659998972,97.07673090000753,,,,,,,,,,,,,,,,,,,,,,,,,,,,,,,,,,,,,,,,,,,,,,,,,,,,,,,,,,,,,,sub101,percept,4,0,2024-08-09_09h45.14.941,ASRT_percept,2023.2.3,60.12957923944067,2024-08-09 09h45.58.990258 +0800,
sequences/sub101_initial_random.csv,2,180,2,2,red,,,,0,0,0,0,0,12,12,12,,,,,,,,,,,,,,,,,,,,,,,,,,,,,97.09125659998972,,,,,,,,,,,,,97.07775480000419,97.09125659998972,97.09125659998972,97.29043459999957,97.41200219999882,4,0,0.30565920000663027,None,97.41370869998354,97.45256370000425,97.45256370000425,97.92389919998823,98.42359980000765,98.40872559999116,98.4088069999998,98.42359980000765,99.12255589998676,99.10818039998412,,,,,,,,,,,,,,,,,,,,,,,,,,,,,,,,,,,,,,,,,,,,,,,,,,,,,,,,,,,,,,sub101,percept,4,0,2024-08-09_09h45.14.941,ASRT_percept,2023.2.3,60.12957923944067,2024-08-09 09h45.58.990258 +0800,
sequences/sub101_initial_random.csv,2,180,2,2,red,,,,0,0,0,0,0,13,13,13,,,,,,,,,,,,,,,,,,,,,,,,,,,,,99.12255589998676,,,,,,,,,,,,,99.10924819999491,99.12255589998676,99.12255589998676,99.32344350000494,99.64422270000796,2,1,0.5078245000040624,None,99.64603489998262,99.66324590001022,99.66324590001022,100.15601179999067,100.65623530000448,100.64229230000637,100.6423872000014,100.65623530000448,101.36130230000708,101.34184649999952,,,,,,,,,,,,,,,,,,,,,,,,,,,,,,,,,,,,,,,,,,,,,,,,,,,,,,,,,,,,,,sub101,percept,4,0,2024-08-09_09h45.14.941,ASRT_percept,2023.2.3,60.12957923944067,2024-08-09 09h45.58.990258 +0800,
sequences/sub101_initial_random.csv,0,0,0,4,red,,,,0,0,0,0,0,14,14,14,,,,,,,,,,,,,,,,,,,,,,,,,,,,,101.36130230000708,,,,,,,,,,,,,101.34394709998742,101.36130230000708,101.36130230000708,101.57303569998476,101.8120379000029,4,1,0.44443069997942075,None,101.81361059998744,101.83369800000219,101.83369800000219,102.32265359998564,102.82209659999353,102.80791649999446,102.80799939998542,102.82209659999353,103.52218379999977,103.50707809999585,,,,,,,,,,,,,,,,,,,,,,,,,,,,,,,,,,,,,,,,,,,,,,,,,,,,,,,,,,,,,,sub101,percept,4,0,2024-08-09_09h45.14.941,ASRT_percept,2023.2.3,60.12957923944067,2024-08-09 09h45.58.990258 +0800,
sequences/sub101_initial_random.csv,2,180,2,2,red,,,,0,0,0,0,0,15,15,15,,,,,,,,,,,,,,,,,,,,,,,,,,,,,103.52218379999977,,,,,,,,,,,,,103.50851139999577,103.52218379999977,103.52218379999977,103.72196249998524,104.04161409998778,2,1,0.5014798000047449,None,104.04319440000108,104.05660459998762,104.05660459998762,104.55493270000443,105.0581026999862,105.04109359998256,105.04118490000837,105.0581026999862,,105.75487609999254,,,,,,,,,,,,,,,,,,,,,,,,,,,,,,,,,,,,,,,,,,,,,,,,,,,,,,,,,,,,,,sub101,percept,4,0,2024-08-09_09h45.14.941,ASRT_percept,2023.2.3,60.12957923944067,2024-08-09 09h45.58.990258 +0800,
sequences/sub101_initial_random.csv,1,90,1,3,red,,,,0,0,0,0,0,16,16,16,,,,,,,,,,,,,,,,,,,,,,,,,,,,,105.7716020999942,,,,,,,,,,,,,105.75651720000315,105.7716020999942,105.7716020999942,105.97209749999456,106.2429972999962,3,1,0.4642349000205286,None,106.24457049998455,106.2596460999921,106.2596460999921,106.75428389999433,107.25414569998975,107.23946069998783,107.23954029998276,107.25414569998975,107.95433829998365,107.93976579999435,,,,,,,,,,,,,,,,,,,,,,,,,,,,,,,,,,,,,,,,,,,,,,,,,,,,,,,,,,,,,,sub101,percept,4,0,2024-08-09_09h45.14.941,ASRT_percept,2023.2.3,60.12957923944067,2024-08-09 09h45.58.990258 +0800,
sequences/sub101_initial_random.csv,1,90,1,3,red,,,,0,0,0,0,0,17,17,17,,,,,,,,,,,,,,,,,,,,,,,,,,,,,107.95433829998365,,,,,,,,,,,,,107.94159249999211,107.95433829998365,107.95433829998365,108.17119150000508,108.34040329998243,3,1,0.37053139999625273,None,108.34200919998693,108.35686679999344,108.35686679999344,108.85348679998424,109.35353829999804,109.33930859999964,109.33938749998924,109.35353829999804,110.05302429999574,110.03750440001022,,,,,,,,,,,,,,,,,,,,,,,,,,,,,,,,,,,,,,,,,,,,,,,,,,,,,,,,,,,,,,sub101,percept,4,0,2024-08-09_09h45.14.941,ASRT_percept,2023.2.3,60.12957923944067,2024-08-09 09h45.58.990258 +0800,
sequences/sub101_initial_random.csv,0,0,0,4,red,,,,0,0,0,0,0,18,18,18,,,,,,,,,,,,,,,,,,,,,,,,,,,,,110.05302429999574,,,,,,,,,,,,,110.03844519998529,110.05302429999574,110.05302429999574,110.25309069998912,110.44077459999244,4,1,0.3696267000050284,None,110.44239229999948,110.45944730000338,110.45944730000338,110.95272609998938,111.4537655999884,111.43814389998442,111.43821629998274,111.4537655999884,,112.1537832999893,,,,,,,,,,,,,,,,,,,,,,,,,,,,,,,,,,,,,,,,,,,,,,,,,,,,,,,,,,,,,,sub101,percept,4,0,2024-08-09_09h45.14.941,ASRT_percept,2023.2.3,60.12957923944067,2024-08-09 09h45.58.990258 +0800,
sequences/sub101_initial_random.csv,2,180,2,2,red,,,,0,0,0,0,0,19,19,19,,,,,,,,,,,,,,,,,,,,,,,,,,,,,112.17222589999437,,,,,,,,,,,,,112.1552376000036,112.17222589999437,112.17222589999437,112.38611079999828,112.65545649998239,2,1,0.466031899995869,None,112.65651110000908,112.67088560000411,112.67088560000411,113.16975529998308,113.66829599998891,113.65544499998214,113.65552639999078,113.66829599998891,114.3696917000052,114.3534432000015,,,,,,,,,,,,,,,,,,,,,,,,,,,,,,,,,,,,,,,,,,,,,,,,,,,,,,,,,,,,,,sub101,percept,4,0,2024-08-09_09h45.14.941,ASRT_percept,2023.2.3,60.12957923944067,2024-08-09 09h45.58.990258 +0800,
sequences/sub101_initial_random.csv,2,180,2,2,red,,,,0,0,0,0,0,20,20,20,,,,,,,,,,,,,,,,,,,,,,,,,,,,,114.3696917000052,,,,,,,,,,,,,114.35461929999292,114.3696917000052,114.3696917000052,114.58527909999248,114.8214971999987,2,1,0.43681159999687225,None,114.82271720000426,114.83477819999098,114.83477819999098,115.3351965000038,115.83447780000279,115.82122589999926,115.8213129999931,115.83447780000279,116.53462319998653,116.51906610000879,,,,,,,,,,,,,,,,,,,,,,,,,,,,,,,,,,,,,,,,,,,,,,,,,,,,,,,,,,,,,,sub101,percept,4,0,2024-08-09_09h45.14.941,ASRT_percept,2023.2.3,60.12957923944067,2024-08-09 09h45.58.990258 +0800,
sequences/sub101_initial_random.csv,0,0,0,4,red,,,,0,0,0,0,0,21,21,21,,,,,,,,,,,,,,,,,,,,,,,,,,,,,116.53462319998653,,,,,,,,,,,,,116.52012020000257,116.53462319998653,116.53462319998653,116.73479069999303,116.93906899998547,4,1,0.39486880000913516,None,116.94091340000159,116.95964089999325,116.95964089999325,117.44922770000994,117.9493242999888,117.93298879999202,117.93300659998204,117.9493242999888,,118.63463210000191,,,,,,,,,,,,,,,,,,,,,,,,,,,,,,,,,,,,,,,,,,,,,,,,,,,,,,,,,,,,,,sub101,percept,4,0,2024-08-09_09h45.14.941,ASRT_percept,2023.2.3,60.12957923944067,2024-08-09 09h45.58.990258 +0800,
sequences/sub101_initial_random.csv,3,270,3,1,red,,,,0,0,0,0,0,22,22,22,,,,,,,,,,,,,,,,,,,,,,,,,,,,,118.65045359998476,,,,,,,,,,,,,118.63636529998621,118.65045359998476,118.65045359998476,118.85047400000622,119.05416709999554,1,1,0.38971970000420697,None,119.05546699999832,119.07075349998195,119.07075349998195,119.56807390000904,120.0658923999872,120.05156789999455,120.05162459998974,120.0658923999872,120.76714000001084,120.75113620000775,,,,,,,,,,,,,,,,,,,,,,,,,,,,,,,,,,,,,,,,,,,,,,,,,,,,,,,,,,,,,,sub101,percept,4,0,2024-08-09_09h45.14.941,ASRT_percept,2023.2.3,60.12957923944067,2024-08-09 09h45.58.990258 +0800,
sequences/sub101_initial_random.csv,1,90,1,3,red,,,,0,0,0,0,0,23,23,23,,,,,,,,,,,,,,,,,,,,,,,,,,,,,120.76714000001084,,,,,,,,,,,,,120.7525675999932,120.76714000001084,120.76714000001084,120.96650370000862,121.22081440000329,3,1,0.4359363000257872,None,121.22182330000214,121.23384289999376,121.23384289999376,121.73470609998913,122.2345587000018,122.2185626999999,122.21865520000574,122.2345587000018,,122.9352407999977,,,,,,,,,,,,,,,,,,,,,,,,,,,,,,,,,,,,,,,,,,,,,,,,,,,,,,,,,,,,,,sub101,percept,4,0,2024-08-09_09h45.14.941,ASRT_percept,2023.2.3,60.12957923944067,2024-08-09 09h45.58.990258 +0800,
sequences/sub101_initial_random.csv,2,180,2,2,red,,,,0,0,0,0,0,24,24,24,,,,,,,,,,,,,,,,,,,,,,,,,,,,,122.9519195999892,,,,,,,,,,,,,122.93684690000373,122.9519195999892,122.9519195999892,123.16617300000507,123.3856545999879,2,1,0.42526429999270476,None,123.38678410000284,123.39826970000286,123.39826970000286,123.89895100001013,124.39876579999691,124.38436979998369,124.38445139999385,124.39876579999691,125.0978533999878,125.08406709998962,,,,,,,,,,,,,,,,,,,,,,,,,,,,,,,,,,,,,,,,,,,,,,,,,,,,,,,,,,,,,,sub101,percept,4,0,2024-08-09_09h45.14.941,ASRT_percept,2023.2.3,60.12957923944067,2024-08-09 09h45.58.990258 +0800,
sequences/sub101_initial_random.csv,1,90,1,3,red,,,,0,0,0,0,0,25,25,25,,,,,,,,,,,,,,,,,,,,,,,,,,,,,125.0978533999878,,,,,,,,,,,,,125.08601659999113,125.0978533999878,125.0978533999878,125.2982852999994,125.52020020000055,3,1,0.41477460000896826,None,125.52202569998917,125.54259609998553,125.54259609998553,126.03149540000595,126.53176340000937,126.51753499999177,126.51762530000997,126.53176340000937,127.24801889999071,127.21785250000539,,,,,,,,,,,,,,,,,,,,,,,,,,,,,,,,,,,,,,,,,,,,,,,,,,,,,,,,,,,,,,sub101,percept,4,0,2024-08-09_09h45.14.941,ASRT_percept,2023.2.3,60.12957923944067,2024-08-09 09h45.58.990258 +0800,
sequences/sub101_initial_random.csv,1,90,1,3,red,,,,0,0,0,0,0,26,26,26,,,,,,,,,,,,,,,,,,,,,,,,,,,,,127.24801889999071,,,,,,,,,,,,,127.21946749999188,127.24801889999071,127.24801889999071,127.44862869998906,127.6527946999995,3,1,0.3857592999993358,None,127.6542446000094,127.66623549998621,127.66623549998621,128.164088599995,128.66474300000118,128.65053829998942,128.65061989999958,128.66474300000118,,129.36533850000706,,,,,,,,,,,,,,,,,,,,,,,,,,,,,,,,,,,,,,,,,,,,,,,,,,,,,,,,,,,,,,sub101,percept,4,0,2024-08-09_09h45.14.941,ASRT_percept,2023.2.3,60.12957923944067,2024-08-09 09h45.58.990258 +0800,
sequences/sub101_initial_random.csv,1,90,1,3,red,,,,0,0,0,0,0,27,27,27,,,,,,,,,,,,,,,,,,,,,,,,,,,,,129.38010849998682,,,,,,,,,,,,,129.36720959999366,129.38010849998682,129.38010849998682,129.58033850000356,129.76941959999385,3,1,0.38162559998454526,None,129.77119659999153,129.78924429998733,129.78924429998733,130.2805599999847,130.7805107999884,130.7653672999877,130.76545820001047,130.7805107999884,131.48126400000183,131.46555100000114,,,,,,,,,,,,,,,,,,,,,,,,,,,,,,,,,,,,,,,,,,,,,,,,,,,,,,,,,,,,,,sub101,percept,4,0,2024-08-09_09h45.14.941,ASRT_percept,2023.2.3,60.12957923944067,2024-08-09 09h45.58.990258 +0800,
sequences/sub101_initial_random.csv,3,270,3,1,red,,,,0,0,0,0,0,28,28,28,,,,,,,,,,,,,,,,,,,,,,,,,,,,,131.48126400000183,,,,,,,,,,,,,131.46735089999856,131.48126400000183,131.48126400000183,131.69634080000105,132.0005014000053,1,1,0.5050387000082992,None,132.00219860000652,132.019011700002,132.019011700002,132.5123140999931,133.01327090000268,132.99836420000065,132.9984499999846,133.01327090000268,133.71486320000258,133.6981409,,,,,,,,,,,,,,,,,,,,,,,,,,,,,,,,,,,,,,,,,,,,,,,,,,,,,,,,,,,,,,sub101,percept,4,0,2024-08-09_09h45.14.941,ASRT_percept,2023.2.3,60.12957923944067,2024-08-09 09h45.58.990258 +0800,
sequences/sub101_initial_random.csv,2,180,2,2,red,,,,0,0,0,0,0,29,29,29,,,,,,,,,,,,,,,,,,,,,,,,,,,,,133.71486320000258,,,,,,,,,,,,,133.6998295999947,133.71486320000258,133.71486320000258,133.91247529999237,134.16589770000428,2,1,0.43457009998383,None,134.16745770000853,134.18415039998945,134.18415039998945,134.67883739998797,135.17926460001036,135.16274410000187,135.16279440000653,135.17926460001036,135.88602649999666,135.86398540000664,,,,,,,,,,,,,,,,,,,,,,,,,,,,,,,,,,,,,,,,,,,,,,,,,,,,,,,,,,,,,,sub101,percept,4,0,2024-08-09_09h45.14.941,ASRT_percept,2023.2.3,60.12957923944067,2024-08-09 09h45.58.990258 +0800,
sequences/sub101_initial_random.csv,0,0,0,4,red,,,,0,0,0,0,0,30,30,30,,,,,,,,,,,,,,,,,,,,,,,,,,,,,135.88602649999666,,,,,,,,,,,,,135.86582239999552,135.88602649999666,135.88602649999666,136.09598740001093,136.2665774000052,4,1,0.3733359999896493,None,136.26819020000403,136.28398049998214,136.28398049998214,136.7781202000042,137.27754849998746,137.2624208999914,137.26249150000513,137.27754849998746,137.97676719998708,137.96309360000305,,,,,,,,,,,,,,,,,,,,,,,,,,,,,,,,,,,,,,,,,,,,,,,,,,,,,,,,,,,,,,sub101,percept,4,0,2024-08-09_09h45.14.941,ASRT_percept,2023.2.3,60.12957923944067,2024-08-09 09h45.58.990258 +0800,
sequences/sub101_initial_random.csv,3,270,3,1,red,,,,0,0,0,0,0,31,31,31,,,,,,,,,,,,,,,,,,,,,,,,,,,,,137.97676719998708,,,,,,,,,,,,,137.96486919999006,137.97676719998708,137.97676719998708,138.17868819998694,138.41750740000862,1,1,0.43416699999943376,None,138.41924650000874,138.4344441999856,138.4344441999856,138.9278321999882,139.42764219999663,139.41220550000435,139.41227689999505,139.42764219999663,140.12741250000545,140.11329799998202,,,,,,,,,,,,,,,,,,,,,,,,,,,,,,,,,,,,,,,,,,,,,,,,,,,,,,,,,,,,,,sub101,percept,4,0,2024-08-09_09h45.14.941,ASRT_percept,2023.2.3,60.12957923944067,2024-08-09 09h45.58.990258 +0800,
sequences/sub101_initial_random.csv,1,90,1,3,red,,,,0,0,0,0,0,32,32,32,,,,,,,,,,,,,,,,,,,,,,,,,,,,,140.12741250000545,,,,,,,,,,,,,140.11510920000728,140.12741250000545,140.12741250000545,140.32703250000486,140.5673811000015,3,1,0.4342845000210218,None,140.5696656999935,140.58357799999067,140.58357799999067,141.07684890000382,141.5765922999999,141.56289050000487,141.5629823000054,141.5765922999999,142.27592200000072,142.26220550001017,,,,,,,,,,,,,,,,,,,,,,,,,,,,,,,,,,,,,,,,,,,,,,,,,,,,,,,,,,,,,,sub101,percept,4,0,2024-08-09_09h45.14.941,ASRT_percept,2023.2.3,60.12957923944067,2024-08-09 09h45.58.990258 +0800,
sequences/sub101_initial_random.csv,2,180,2,2,red,,,,0,0,0,0,0,33,33,33,,,,,,,,,,,,,,,,,,,,,,,,,,,,,142.27592200000072,,,,,,,,,,,,,142.26359029999003,142.27592200000072,142.27592200000072,142.47681160000502,142.68529389999458,2,1,0.4020264999999199,None,142.6868676999875,142.7029229000036,142.7029229000036,143.19308779999847,143.6925717999984,143.68104880000465,143.68111139998655,143.6925717999984,144.39284960000077,144.3810256999859,,,,,,,,,,,,,,,,,,,,,,,,,,,,,,,,,,,,,,,,,,,,,,,,,,,,,,,,,,,,,,sub101,percept,4,0,2024-08-09_09h45.14.941,ASRT_percept,2023.2.3,60.12957923944067,2024-08-09 09h45.58.990258 +0800,
sequences/sub101_initial_random.csv,2,180,2,2,red,,,,0,0,0,0,0,34,34,34,,,,,,,,,,,,,,,,,,,,,,,,,,,,,144.39284960000077,,,,,,,,,,,,,144.3828577999957,144.39284960000077,144.39284960000077,144.59253409999656,144.89577179998741,2,1,0.49706560000777245,None,144.89688449999085,144.91196199998376,144.91196199998376,145.40831969998544,145.90843770001084,145.8938261999865,145.8939124000026,145.90843770001084,,146.5979967000021,,,,,,,,,,,,,,,,,,,,,,,,,,,,,,,,,,,,,,,,,,,,,,,,,,,,,,,,,,,,,,sub101,percept,4,0,2024-08-09_09h45.14.941,ASRT_percept,2023.2.3,60.12957923944067,2024-08-09 09h45.58.990258 +0800,
sequences/sub101_initial_random.csv,0,0,0,4,red,,,,0,0,0,0,0,35,35,35,,,,,,,,,,,,,,,,,,,,,,,,,,,,,146.60722079998231,,,,,,,,,,,,,146.59929260000354,146.60722079998231,146.60722079998231,146.80882239999482,147.01174349998473,4,1,0.38911959997494705,None,147.01358989998698,147.0295565999986,147.0295565999986,147.5246499000059,148.02462809998542,148.01030619998346,148.0103795999894,148.02462809998542,148.72409470001003,148.71008339998662,,,,,,,,,,,,,,,,,,,,,,,,,,,,,,,,,,,,,,,,,,,,,,,,,,,,,,,,,,,,,,sub101,percept,4,0,2024-08-09_09h45.14.941,ASRT_percept,2023.2.3,60.12957923944067,2024-08-09 09h45.58.990258 +0800,
sequences/sub101_initial_random.csv,1,90,1,3,red,,,,0,0,0,0,0,36,36,36,,,,,,,,,,,,,,,,,,,,,,,,,,,,,148.72409470001003,,,,,,,,,,,,,148.7115516999911,148.72409470001003,148.72409470001003,148.92430369998328,149.17797719998634,3,1,0.44837500000721775,None,149.17963999998756,149.1940775999974,149.1940775999974,149.69090029998915,150.19327109999722,150.17676870001014,150.1768458999868,150.19327109999722,,150.8918374000059,,,,,,,,,,,,,,,,,,,,,,,,,,,,,,,,,,,,,,,,,,,,,,,,,,,,,,,,,,,,,,sub101,percept,4,0,2024-08-09_09h45.14.941,ASRT_percept,2023.2.3,60.12957923944067,2024-08-09 09h45.58.990258 +0800,
sequences/sub101_initial_random.csv,1,90,1,3,red,,,,0,0,0,0,0,37,37,37,,,,,,,,,,,,,,,,,,,,,,,,,,,,,150.90768390000449,,,,,,,,,,,,,150.89365419998649,150.90768390000449,150.90768390000449,151.10703569999896,151.3457214999944,3,1,0.41772060000221245,None,151.34729129998595,151.36367419999442,151.36367419999442,151.85680899998988,152.35685829998692,152.34275429998524,152.34283740000683,152.35685829998692,153.05839829999604,153.04189259998384,,,,,,,,,,,,,,,,,,,,,,,,,,,,,,,,,,,,,,,,,,,,,,,,,,,,,,,,,,,,,,sub101,percept,4,0,2024-08-09_09h45.14.941,ASRT_percept,2023.2.3,60.12957923944067,2024-08-09 09h45.58.990258 +0800,
sequences/sub101_initial_random.csv,3,270,3,1,red,,,,0,0,0,0,0,38,38,38,,,,,,,,,,,,,,,,,,,,,,,,,,,,,153.05839829999604,,,,,,,,,,,,,153.04381999999168,153.05839829999604,153.05839829999604,153.27339459999348,153.49350839998806,1,1,0.42238750000251457,None,153.49510020000162,153.51335719999042,153.51335719999042,154.00741089999792,154.50773730000947,154.49326779998955,154.49335479998263,154.50773730000947,155.20763260000967,155.19258050000644,,,,,,,,,,,,,,,,,,,,,,,,,,,,,,,,,,,,,,,,,,,,,,,,,,,,,,,,,,,,,,sub101,percept,4,0,2024-08-09_09h45.14.941,ASRT_percept,2023.2.3,60.12957923944067,2024-08-09 09h45.58.990258 +0800,
sequences/sub101_initial_random.csv,0,0,0,4,red,,,,0,0,0,0,0,39,39,39,,,,,,,,,,,,,,,,,,,,,,,,,,,,,155.20763260000967,,,,,,,,,,,,,155.1943600999948,155.20763260000967,155.20763260000967,155.42307900000014,155.6434520999901,4,1,0.41884749999735504,None,155.6452359999821,155.66105679998873,155.66105679998873,156.15523080001003,156.65524419999565,156.64099119999446,156.64108599998872,156.65524419999565,,157.34190420000232,,,,,,,,,,,,,,,,,,,,,,,,,,,,,,,,,,,,,,,,,,,,,,,,,,,,,,,,,,,,,,sub101,percept,4,0,2024-08-09_09h45.14.941,ASRT_percept,2023.2.3,60.12957923944067,2024-08-09 09h45.58.990258 +0800,
sequences/sub101_initial_random.csv,3,270,3,1,red,,,,0,0,0,0,0,40,40,40,,,,,,,,,,,,,,,,,,,,,,,,,,,,,157.3613323000027,,,,,,,,,,,,,157.3434772999899,157.3613323000027,157.3613323000027,157.57152860000497,157.892569299991,1,1,0.5211598000023514,None,157.89442579998286,157.91091209999286,157.91091209999286,158.40492080000695,158.90429679999943,158.89026889999514,158.89034029998584,158.90429679999943,159.60711569999694,159.58994269999675,,,,,,,,,,,,,,,,,,,,,,,,,,,,,,,,,,,,,,,,,,,,,,,,,,,,,,,,,,,,,,sub101,percept,4,0,2024-08-09_09h45.14.941,ASRT_percept,2023.2.3,60.12957923944067,2024-08-09 09h45.58.990258 +0800,
sequences/sub101_initial_random.csv,3,270,3,1,red,,,,0,0,0,0,0,41,41,41,,,,,,,,,,,,,,,,,,,,,,,,,,,,,159.60711569999694,,,,,,,,,,,,,159.59178089999477,159.60711569999694,159.60711569999694,159.82091569999466,160.04411250000703,1,1,0.4213251999753993,None,160.04568619999918,160.0644062999927,160.0644062999927,160.55468840000685,161.05464309998206,161.03995479998412,161.040029900003,161.05464309998206,161.7548518999829,161.739485099999,,,,,,,,,,,,,,,,,,,,,,,,,,,,,,,,,,,,,,,,,,,,,,,,,,,,,,,,,,,,,,sub101,percept,4,0,2024-08-09_09h45.14.941,ASRT_percept,2023.2.3,60.12957923944067,2024-08-09 09h45.58.990258 +0800,
sequences/sub101_initial_random.csv,2,180,2,2,red,,,,0,0,0,0,0,42,42,42,,,,,,,,,,,,,,,,,,,,,,,,,,,,,161.7548518999829,,,,,,,,,,,,,161.74091550000594,161.7548518999829,161.7548518999829,161.95442709999043,162.32508300000336,2,1,0.5589507000113372,None,162.32669859999442,162.34344540000893,162.34344540000893,162.83679450000636,163.3366190000088,163.3224229000043,163.3225126999896,163.3366190000088,164.0358552999969,164.0225298999867,,,,,,,,,,,,,,,,,,,,,,,,,,,,,,,,,,,,,,,,,,,,,,,,,,,,,,,,,,,,,,sub101,percept,4,0,2024-08-09_09h45.14.941,ASRT_percept,2023.2.3,60.12957923944067,2024-08-09 09h45.58.990258 +0800,
sequences/sub101_initial_random.csv,1,90,1,3,red,,,,0,0,0,0,0,43,43,43,,,,,,,,,,,,,,,,,,,,,,,,,,,,,164.0358552999969,,,,,,,,,,,,,164.02445949998219,164.0358552999969,164.0358552999969,164.2368104000052,164.5061710999871,3,1,0.4603039999783505,None,164.50765479999245,164.52159319998464,164.52159319998464,165.01969329998246,165.519020799984,165.50466209999286,165.50474730000133,165.519020799984,166.21967709998717,166.20463709998876,,,,,,,,,,,,,,,,,,,,,,,,,,,,,,,,,,,,,,,,,,,,,,,,,,,,,,,,,,,,,,sub101,percept,4,0,2024-08-09_09h45.14.941,ASRT_percept,2023.2.3,60.12957923944067,2024-08-09 09h45.58.990258 +0800,
sequences/sub101_initial_random.csv,3,270,3,1,red,,,,0,0,0,0,0,44,44,44,,,,,,,,,,,,,,,,,,,,,,,,,,,,,166.21967709998717,,,,,,,,,,,,,166.20614749999368,166.21967709998717,166.21967709998717,166.41878469998483,167.02340010000626,1,1,0.7894666999927722,None,167.02513170000748,167.04018350000842,167.04018350000842,167.53602949998458,168.03562989999773,168.02051689999644,168.0206080999924,168.03562989999773,168.73601900000358,168.72012939999695,,,,,,,,,,,,,,,,,,,,,,,,,,,,,,,,,,,,,,,,,,,,,,,,,,,,,,,,,,,,,,sub101,percept,4,0,2024-08-09_09h45.14.941,ASRT_percept,2023.2.3,60.12957923944067,2024-08-09 09h45.58.990258 +0800,
sequences/sub101_initial_random.csv,1,90,1,3,red,,,,0,0,0,0,0,45,45,45,,,,,,,,,,,,,,,,,,,,,,,,,,,,,168.73601900000358,,,,,,,,,,,,,168.72157980001066,168.73601900000358,168.73601900000358,168.93549370000255,169.19169839998358,3,1,0.45035609998740256,None,169.19348909999826,169.21033460000763,169.21033460000763,169.7011080000084,170.2001806999906,170.18865490000462,170.188737199991,170.2001806999906,170.89991839998402,170.88648869999452,,,,,,,,,,,,,,,,,,,,,,,,,,,,,,,,,,,,,,,,,,,,,,,,,,,,,,,,,,,,,,sub101,percept,4,0,2024-08-09_09h45.14.941,ASRT_percept,2023.2.3,60.12957923944067,2024-08-09 09h45.58.990258 +0800,
sequences/sub101_initial_random.csv,3,270,3,1,red,,,,0,0,0,0,0,46,46,46,,,,,,,,,,,,,,,,,,,,,,,,,,,,,170.89991839998402,,,,,,,,,,,,,170.88776179999695,170.89991839998402,170.89991839998402,171.100672200002,171.2739484999911,1,1,0.36848839998128824,None,171.27562169998419,171.29327890000422,171.29327890000422,171.78561689998605,172.2837740999821,172.26930179999908,172.26939949998632,172.2837740999821,172.98570190000464,172.96926419998636,,,,,,,,,,,,,,,,,,,,,,,,,,,,,,,,,,,,,,,,,,,,,,,,,,,,,,,,,,,,,,sub101,percept,4,0,2024-08-09_09h45.14.941,ASRT_percept,2023.2.3,60.12957923944067,2024-08-09 09h45.58.990258 +0800,
sequences/sub101_initial_random.csv,3,270,3,1,red,,,,0,0,0,0,0,47,47,47,,,,,,,,,,,,,,,,,,,,,,,,,,,,,172.98570190000464,,,,,,,,,,,,,172.9713757999998,172.98570190000464,172.98570190000464,173.19972830000916,173.40399630001048,1,1,0.41065040000830777,None,173.40583879998303,173.4206176000007,173.4206176000007,173.91636430000653,174.41638310000417,174.40239390000352,174.40248699998483,174.41638310000417,175.1184857999906,175.1018153000041,,,,,,,,,,,,,,,,,,,,,,,,,,,,,,,,,,,,,,,,,,,,,,,,,,,,,,,,,,,,,,sub101,percept,4,0,2024-08-09_09h45.14.941,ASRT_percept,2023.2.3,60.12957923944067,2024-08-09 09h45.58.990258 +0800,
sequences/sub101_initial_random.csv,3,270,3,1,red,,,,0,0,0,0,0,48,48,48,,,,,,,,,,,,,,,,,,,,,,,,,,,,,175.1184857999906,,,,,,,,,,,,,175.10348849999718,175.1184857999906,175.1184857999906,175.333249599993,175.53529989998788,1,1,0.4100293000228703,None,175.53666859999066,175.54813690000447,175.54813690000447,176.04950530000497,176.54938469998888,176.5359204999986,176.53601360000903,176.54938469998888,177.2502600000007,177.23440439999104,,,,,,,,,,,,,,,,,,,,,,,,,,,,,,,,,,,,,,,,,,,,,,,,,,,,,,,,,,,,,,sub101,percept,4,0,2024-08-09_09h45.14.941,ASRT_percept,2023.2.3,60.12957923944067,2024-08-09 09h45.58.990258 +0800,
sequences/sub101_initial_random.csv,0,0,0,4,red,,,,0,0,0,0,0,49,49,49,,,,,,,,,,,,,,,,,,,,,,,,,,,,,177.2502600000007,,,,,,,,,,,,,177.23670239999774,177.2502600000007,177.2502600000007,177.46506640000734,177.71847150000394,4,1,0.46118419998674653,None,177.71959480000078,177.73123469998245,177.73123469998245,178.2324118000106,178.73214569999254,178.7169054999831,178.71699159999844,178.73214569999254,179.43275690000155,179.4166147999931,,,,,,,,,,,,,,,,,,,,,,,,,,,,,,,,,,,,,,,,,,,,,,,,,,,,,,,,,,,,,,sub101,percept,4,0,2024-08-09_09h45.14.941,ASRT_percept,2023.2.3,60.12957923944067,2024-08-09 09h45.58.990258 +0800,
sequences/sub101_initial_random.csv,0,0,0,4,red,,,,0,0,0,0,0,50,50,50,,,,,,,,,,,,,,,,,,,,,,,,,,,,,179.43275690000155,,,,,,,,,,,,,179.41843489999883,179.43275690000155,179.43275690000155,179.64842539999518,179.88654529998894,4,1,0.4341210999991745,None,179.88836799998535,179.90455289999954,179.90455289999954,180.39831600000616,180.89847789998748,180.88405709998915,180.88417020000634,180.89847789998748,181.59842419999768,181.58311770000728,,,,,,,,,,,,,,,,,,,,,,,,,,,,,,,,,,,,,,,,,,,,,,,,,,,,,,,,,,,,,,sub101,percept,4,0,2024-08-09_09h45.14.941,ASRT_percept,2023.2.3,60.12957923944067,2024-08-09 09h45.58.990258 +0800,
sequences/sub101_initial_random.csv,3,270,3,1,red,,,,0,0,0,0,0,51,51,51,,,,,,,,,,,,,,,,,,,,,,,,,,,,,181.59842419999768,,,,,,,,,,,,,181.5848311999871,181.59842419999768,181.59842419999768,181.7978097999876,182.01789009998902,1,1,0.40889570000581443,None,182.01946730000782,182.03609919999144,182.03609919999144,182.53067730000475,183.0304138000065,183.01735879998887,183.01744969998254,183.0304138000065,183.7305655000091,183.7159052999923,,,,,,,,,,,,,,,,,,,,,,,,,,,,,,,,,,,,,,,,,,,,,,,,,,,,,,,,,,,,,,sub101,percept,4,0,2024-08-09_09h45.14.941,ASRT_percept,2023.2.3,60.12957923944067,2024-08-09 09h45.58.990258 +0800,
sequences/sub101_initial_random.csv,3,270,3,1,red,,,,0,0,0,0,0,52,52,52,,,,,,,,,,,,,,,,,,,,,,,,,,,,,183.7305655000091,,,,,,,,,,,,,183.71742460000678,183.7305655000091,183.7305655000091,183.93023669999093,184.12078130000737,1,1,0.37987999999313615,None,184.12302510000882,184.1387601000024,184.1387601000024,184.63441490000696,185.12934980000136,185.11520349999773,185.11529319998226,185.12934980000136,185.8289736000006,185.81654790000175,,,,,,,,,,,,,,,,,,,,,,,,,,,,,,,,,,,,,,,,,,,,,,,,,,,,,,,,,,,,,,sub101,percept,4,0,2024-08-09_09h45.14.941,ASRT_percept,2023.2.3,60.12957923944067,2024-08-09 09h45.58.990258 +0800,
sequences/sub101_initial_random.csv,1,90,1,3,red,,,,0,0,0,0,0,53,53,53,,,,,,,,,,,,,,,,,,,,,,,,,,,,,185.8289736000006,,,,,,,,,,,,,185.81806900000083,185.8289736000006,185.8289736000006,186.02945299999556,186.25062410000828,3,1,0.41453790001105517,None,186.25248830000055,186.2689410999883,186.2689410999883,186.76282889998402,187.26299769998877,187.24852359999204,187.2486108999874,187.26299769998877,187.96348020000733,187.94775699998718,,,,,,,,,,,,,,,,,,,,,,,,,,,,,,,,,,,,,,,,,,,,,,,,,,,,,,,,,,,,,,sub101,percept,4,0,2024-08-09_09h45.14.941,ASRT_percept,2023.2.3,60.12957923944067,2024-08-09 09h45.58.990258 +0800,
sequences/sub101_initial_random.csv,2,180,2,2,red,,,,0,0,0,0,0,54,54,54,,,,,,,,,,,,,,,,,,,,,,,,,,,,,187.96348020000733,,,,,,,,,,,,,187.94938790000742,187.96348020000733,187.96348020000733,188.17888540000422,188.43273110000882,2,1,0.45928129999083467,None,188.43438170000445,188.4538484000077,188.4538484000077,188.94509629998356,189.4450271000096,189.430457999988,189.43053979999968,189.4450271000096,190.14722300000722,190.13084520000848,,,,,,,,,,,,,,,,,,,,,,,,,,,,,,,,,,,,,,,,,,,,,,,,,,,,,,,,,,,,,,sub101,percept,4,0,2024-08-09_09h45.14.941,ASRT_percept,2023.2.3,60.12957923944067,2024-08-09 09h45.58.990258 +0800,
sequences/sub101_initial_random.csv,2,180,2,2,red,,,,0,0,0,0,0,55,55,55,,,,,,,,,,,,,,,,,,,,,,,,,,,,,190.14722300000722,,,,,,,,,,,,,190.13249809999252,190.14722300000722,190.14722300000722,190.361218200007,190.56752049998613,2,1,0.4132838000077754,None,190.569359599991,190.58483069998329,190.58483069998329,191.0782401000033,191.57782579999184,191.56313029999728,191.56321190000745,191.57782579999184,192.27953040000284,192.26362159999553,,,,,,,,,,,,,,,,,,,,,,,,,,,,,,,,,,,,,,,,,,,,,,,,,,,,,,,,,,,,,,sub101,percept,4,0,2024-08-09_09h45.14.941,ASRT_percept,2023.2.3,60.12957923944067,2024-08-09 09h45.58.990258 +0800,
sequences/sub101_initial_random.csv,2,180,2,2,red,,,,0,0,0,0,0,56,56,56,,,,,,,,,,,,,,,,,,,,,,,,,,,,,192.27953040000284,,,,,,,,,,,,,192.2658448999864,192.27953040000284,192.27953040000284,192.4939990999992,192.73139130001073,2,1,0.44060869998065755,None,192.73310149999452,192.75101430001087,192.75101430001087,193.24640820000786,193.74580390000483,193.72994240000844,193.7300142000022,193.74580390000483,,194.44576329999836,,,,,,,,,,,,,,,,,,,,,,,,,,,,,,,,,,,,,,,,,,,,,,,,,,,,,,,,,,,,,,sub101,percept,4,0,2024-08-09_09h45.14.941,ASRT_percept,2023.2.3,60.12957923944067,2024-08-09 09h45.58.990258 +0800,
sequences/sub101_initial_random.csv,3,270,3,1,red,,,,0,0,0,0,0,57,57,57,,,,,,,,,,,,,,,,,,,,,,,,,,,,,194.4619498999964,,,,,,,,,,,,,194.44766030000756,194.4619498999964,194.4619498999964,194.6600993000029,194.92959729998256,1,1,0.45710820000385866,None,194.93162479999592,194.94678910000948,194.94678910000948,195.44486369998776,195.94307949999347,195.93002090000664,195.93010830000276,195.94307949999347,196.64466359998914,196.6298819000076,,,,,,,,,,,,,,,,,,,,,,,,,,,,,,,,,,,,,,,,,,,,,,,,,,,,,,,,,,,,,,sub101,percept,4,0,2024-08-09_09h45.14.941,ASRT_percept,2023.2.3,60.12957923944067,2024-08-09 09h45.58.990258 +0800,
sequences/sub101_initial_random.csv,2,180,2,2,red,,,,0,0,0,0,0,58,58,58,,,,,,,,,,,,,,,,,,,,,,,,,,,,,196.64466359998914,,,,,,,,,,,,,196.6315340999863,196.64466359998914,196.64466359998914,196.84270489998744,197.17952740000328,2,1,0.5195119000272825,None,197.18140460000723,197.19517779999296,197.19517779999296,197.69258589998935,198.19223710001097,198.17707780000637,198.1771418999997,198.19223710001097,,198.89234279998345,,,,,,,,,,,,,,,,,,,,,,,,,,,,,,,,,,,,,,,,,,,,,,,,,,,,,,,,,,,,,,sub101,percept,4,0,2024-08-09_09h45.14.941,ASRT_percept,2023.2.3,60.12957923944067,2024-08-09 09h45.58.990258 +0800,
sequences/sub101_initial_random.csv,1,90,1,3,red,,,,0,0,0,0,0,59,59,59,,,,,,,,,,,,,,,,,,,,,,,,,,,,,198.9098731999984,,,,,,,,,,,,,198.8938280000002,198.9098731999984,198.9098731999984,199.1259405000019,199.38179069999023,3,1,0.46419619998778217,None,199.3834923999966,199.3979951000074,199.3979951000074,199.8915815000073,200.39222219999647,200.3775844000047,200.3776768000098,200.39222219999647,201.09079660000862,201.07678129998385,,,,,,,,,,,,,,,,,,,,,,,,,,,,,,,,,,,,,,,,,,,,,,,,,,,,,,,,,,,,,,sub101,percept,4,0,2024-08-09_09h45.14.941,ASRT_percept,2023.2.3,60.12957923944067,2024-08-09 09h45.58.990258 +0800,
sequences/sub101_initial_random.csv,1,90,1,3,red,,,,0,0,0,0,0,60,60,60,,,,,,,,,,,,,,,,,,,,,,,,,,,,,201.09079660000862,,,,,,,,,,,,,201.07835769999656,201.09079660000862,201.09079660000862,201.29161929999827,201.51291659998242,3,1,0.41448039998067543,None,201.5147900999873,201.53077889999258,201.53077889999258,202.02381199999945,202.52362910000375,202.50953310000477,202.5096013000002,202.52362910000375,203.22545389999868,203.20967330000713,,,,,,,,,,,,,,,,,,,,,,,,,,,,,,,,,,,,,,,,,,,,,,,,,,,,,,,,,,,,,,sub101,percept,4,0,2024-08-09_09h45.14.941,ASRT_percept,2023.2.3,60.12957923944067,2024-08-09 09h45.58.990258 +0800,
sequences/sub101_initial_random.csv,1,90,1,3,red,,,,0,0,0,0,0,61,61,61,,,,,,,,,,,,,,,,,,,,,,,,,,,,,203.22545389999868,,,,,,,,,,,,,203.21144579999964,203.22545389999868,203.22545389999868,203.4403095000016,203.63007029998698,3,1,0.39950890000909567,None,203.63211869998486,203.64852119999705,203.64852119999705,204.14095090000774,204.6403794999933,204.62666899999022,204.62676680000732,204.6403794999933,205.34191650000867,205.32520739999018,,,,,,,,,,,,,,,,,,,,,,,,,,,,,,,,,,,,,,,,,,,,,,,,,,,,,,,,,,,,,,sub101,percept,4,0,2024-08-09_09h45.14.941,ASRT_percept,2023.2.3,60.12957923944067,2024-08-09 09h45.58.990258 +0800,
sequences/sub101_initial_random.csv,2,180,2,2,red,,,,0,0,0,0,0,62,62,62,,,,,,,,,,,,,,,,,,,,,,,,,,,,,205.34191650000867,,,,,,,,,,,,,205.32676319999155,205.34191650000867,205.34191650000867,205.55571970000165,205.7795652000059,2,1,0.43271680001635104,None,205.78132290000212,205.7993836000096,205.7993836000096,206.2898210999847,206.78995979999308,206.7776470000099,206.77773249999154,206.78995979999308,207.489822500007,207.4748019000108,,,,,,,,,,,,,,,,,,,,,,,,,,,,,,,,,,,,,,,,,,,,,,,,,,,,,,,,,,,,,,sub101,percept,4,0,2024-08-09_09h45.14.941,ASRT_percept,2023.2.3,60.12957923944067,2024-08-09 09h45.58.990258 +0800,
sequences/sub101_initial_random.csv,1,90,1,3,red,,,,0,0,0,0,0,63,63,63,,,,,,,,,,,,,,,,,,,,,,,,,,,,,207.489822500007,,,,,,,,,,,,,207.4764140000043,207.489822500007,207.489822500007,207.6891217000084,207.92649419998634,3,1,0.42320489999838173,None,207.9281628000026,207.94491729998845,207.94491729998845,208.4395141999994,208.93884909999906,208.92431989999022,208.92440260000876,208.93884909999906,209.6399676000001,209.62390810000943,,,,,,,,,,,,,,,,,,,,,,,,,,,,,,,,,,,,,,,,,,,,,,,,,,,,,,,,,,,,,,sub101,percept,4,0,2024-08-09_09h45.14.941,ASRT_percept,2023.2.3,60.12957923944067,2024-08-09 09h45.58.990258 +0800,
sequences/sub101_initial_random.csv,2,180,2,2,red,,,,0,0,0,0,0,64,64,64,,,,,,,,,,,,,,,,,,,,,,,,,,,,,209.6399676000001,,,,,,,,,,,,,209.62560780000058,209.6399676000001,209.6399676000001,209.83978380000917,210.061409499991,2,1,0.4156692000105977,None,210.06324859999586,210.08238040001015,210.08238040001015,210.57134599998244,211.0725029000023,211.05727429999388,211.05736289999913,211.0725029000023,,211.77335450000828,,,,,,,,,,,,,,,,,,,,,,,,,,,,,,,,,,,,,,,,,,,,,,,,,,,,,,,,,,,,,,sub101,percept,4,0,2024-08-09_09h45.14.941,ASRT_percept,2023.2.3,60.12957923944067,2024-08-09 09h45.58.990258 +0800,
sequences/sub101_initial_random.csv,1,90,1,3,red,,,,0,0,0,0,0,65,65,65,,,,,,,,,,,,,,,,,,,,,,,,,,,,,211.7902502999932,,,,,,,,,,,,,211.77508859999944,211.7902502999932,211.7902502999932,212.0048412999895,212.27684859998408,3,1,0.4745251999993343,None,212.27906619998976,212.29174869999406,212.29174869999406,212.78776790000848,213.28834130000905,213.27372019999893,213.27380339999218,213.28834130000905,,213.9878711999918,,,,,,,,,,,,,,,,,,,,,,,,,,,,,,,,,,,,,,,,,,,,,,,,,,,,,,,,,,,,,,sub101,percept,4,0,2024-08-09_09h45.14.941,ASRT_percept,2023.2.3,60.12957923944067,2024-08-09 09h45.58.990258 +0800,
sequences/sub101_initial_random.csv,1,90,1,3,red,,,,0,0,0,0,0,66,66,66,,,,,,,,,,,,,,,,,,,,,,,,,,,,,214.00354020000668,,,,,,,,,,,,,213.98956200000248,214.00354020000668,214.00354020000668,214.20390639998368,214.3909302999964,3,1,0.37311200000112876,None,214.39272470001015,214.4090978000022,214.4090978000022,214.90375599998515,215.403590300004,215.38922209999873,215.38931629998842,215.403590300004,216.10289969999576,216.08850919999531,,,,,,,,,,,,,,,,,,,,,,,,,,,,,,,,,,,,,,,,,,,,,,,,,,,,,,,,,,,,,,sub101,percept,4,0,2024-08-09_09h45.14.941,ASRT_percept,2023.2.3,60.12957923944067,2024-08-09 09h45.58.990258 +0800,
sequences/sub101_initial_random.csv,2,180,2,2,red,,,,0,0,0,0,0,67,67,67,,,,,,,,,,,,,,,,,,,,,,,,,,,,,216.10289969999576,,,,,,,,,,,,,216.09026430000085,216.10289969999576,216.10289969999576,216.30301629999303,216.53997429998708,2,1,0.42129619998740964,None,216.54174300000886,216.5589331999945,216.5589331999945,217.0530463999894,217.55307520000497,217.53823089998332,217.53832220000913,217.55307520000497,218.25516589998733,218.23894029998337,,,,,,,,,,,,,,,,,,,,,,,,,,,,,,,,,,,,,,,,,,,,,,,,,,,,,,,,,,,,,,sub101,percept,4,0,2024-08-09_09h45.14.941,ASRT_percept,2023.2.3,60.12957923944067,2024-08-09 09h45.58.990258 +0800,
sequences/sub101_initial_random.csv,1,90,1,3,red,,,,0,0,0,0,0,68,68,68,,,,,,,,,,,,,,,,,,,,,,,,,,,,,218.25516589998733,,,,,,,,,,,,,218.24103440000908,218.25516589998733,218.25516589998733,218.47000030000345,218.75561829999788,3,1,0.4826685000152793,None,218.75723469999502,218.76941259999876,218.76941259999876,219.26924009999493,219.76895540000987,219.75540930000716,219.75549229999888,219.76895540000987,220.47105590000865,220.45468520000577,,,,,,,,,,,,,,,,,,,,,,,,,,,,,,,,,,,,,,,,,,,,,,,,,,,,,,,,,,,,,,sub101,percept,4,0,2024-08-09_09h45.14.941,ASRT_percept,2023.2.3,60.12957923944067,2024-08-09 09h45.58.990258 +0800,
sequences/sub101_initial_random.csv,0,0,0,4,red,,,,0,0,0,0,0,69,69,69,,,,,,,,,,,,,,,,,,,,,,,,,,,,,220.47105590000865,,,,,,,,,,,,,220.45681999999215,220.47105590000865,220.47105590000865,220.68504009998287,220.9225502999907,4,1,0.43988550000358373,None,220.92472809998435,220.94084180000937,220.94084180000937,221.43475200000103,221.93485630000941,221.9208146999881,221.9209039999987,221.93485630000941,222.6339134000009,222.6194930000056,,,,,,,,,,,,,,,,,,,,,,,,,,,,,,,,,,,,,,,,,,,,,,,,,,,,,,,,,,,,,,sub101,percept,4,0,2024-08-09_09h45.14.941,ASRT_percept,2023.2.3,60.12957923944067,2024-08-09 09h45.58.990258 +0800,
sequences/sub101_initial_random.csv,1,90,1,3,red,,,,0,0,0,0,0,70,70,70,,,,,,,,,,,,,,,,,,,,,,,,,,,,,222.6339134000009,,,,,,,,,,,,,222.62096269999165,222.6339134000009,222.6339134000009,222.8343370000075,223.07398789998842,3,1,0.4344664999807719,None,223.0754054999852,223.0875279000029,223.0875279000029,223.58400979998987,224.08561690000352,224.07019030000083,224.07027540000854,224.08561690000352,,224.7846098000009,,,,,,,,,,,,,,,,,,,,,,,,,,,,,,,,,,,,,,,,,,,,,,,,,,,,,,,,,,,,,,sub101,percept,4,0,2024-08-09_09h45.14.941,ASRT_percept,2023.2.3,60.12957923944067,2024-08-09 09h45.58.990258 +0800,
sequences/sub101_initial_random.csv,2,180,2,2,red,,,,0,0,0,0,0,71,71,71,,,,,,,,,,,,,,,,,,,,,,,,,,,,,224.8009602999955,,,,,,,,,,,,,224.7864253000007,224.8009602999955,224.8009602999955,225.0003466999915,225.25482129998272,2,1,0.43821600000956096,None,225.25664010000764,225.27175559999887,225.27175559999887,225.7671573999978,226.26775309999357,226.2520755000005,226.2521579999884,226.26775309999357,,226.96738509999705,,,,,,,,,,,,,,,,,,,,,,,,,,,,,,,,,,,,,,,,,,,,,,,,,,,,,,,,,,,,,,sub101,percept,4,0,2024-08-09_09h45.14.941,ASRT_percept,2023.2.3,60.12957923944067,2024-08-09 09h45.58.990258 +0800,
sequences/sub101_initial_random.csv,0,0,0,4,red,,,,0,0,0,0,0,72,72,72,,,,,,,,,,,,,,,,,,,,,,,,,,,,,226.98317620001035,,,,,,,,,,,,,226.96933510000235,226.98317620001035,226.98317620001035,227.18558479999774,227.43663029998424,4,1,0.4362115999974776,None,227.4384616999887,227.45599650000804,227.45599650000804,227.9495415999845,228.44977669999935,228.43517029998475,228.43524930000422,228.44977669999935,229.14887249999447,229.13488729999517,,,,,,,,,,,,,,,,,,,,,,,,,,,,,,,,,,,,,,,,,,,,,,,,,,,,,,,,,,,,,,sub101,percept,4,0,2024-08-09_09h45.14.941,ASRT_percept,2023.2.3,60.12957923944067,2024-08-09 09h45.58.990258 +0800,
sequences/sub101_initial_random.csv,1,90,1,3,red,,,,0,0,0,0,0,73,73,73,,,,,,,,,,,,,,,,,,,,,,,,,,,,,229.14887249999447,,,,,,,,,,,,,229.1369929999928,229.14887249999447,229.14887249999447,229.34919189999346,229.58939370000735,3,1,0.4307437999814283,None,229.59102009999333,229.60732730000746,229.60732730000746,230.09888109998428,230.5986653,230.58441519999178,230.58449079998536,230.5986653,231.30052389999037,231.28489199999603,,,,,,,,,,,,,,,,,,,,,,,,,,,,,,,,,,,,,,,,,,,,,,,,,,,,,,,,,,,,,,sub101,percept,4,0,2024-08-09_09h45.14.941,ASRT_percept,2023.2.3,60.12957923944067,2024-08-09 09h45.58.990258 +0800,
sequences/sub101_initial_random.csv,1,90,1,3,red,,,,0,0,0,0,0,74,74,74,,,,,,,,,,,,,,,,,,,,,,,,,,,,,231.30052389999037,,,,,,,,,,,,,231.28652629998396,231.30052389999037,231.30052389999037,231.51813819998642,231.75298610000755,3,1,0.4400350000069011,None,231.7547013000003,231.77038619999075,231.77038619999075,232.26511499998742,232.76420750000398,232.74994740000693,232.75002790000872,232.76420750000398,233.46380840000347,233.44943030001014,,,,,,,,,,,,,,,,,,,,,,,,,,,,,,,,,,,,,,,,,,,,,,,,,,,,,,,,,,,,,,sub101,percept,4,0,2024-08-09_09h45.14.941,ASRT_percept,2023.2.3,60.12957923944067,2024-08-09 09h45.58.990258 +0800,
sequences/sub101_initial_random.csv,3,270,3,1,red,,,,0,0,0,0,0,75,75,75,,,,,,,,,,,,,,,,,,,,,,,,,,,,,233.46380840000347,,,,,,,,,,,,,233.451026499999,233.46380840000347,233.46380840000347,233.66443109998363,233.86793249999755,1,1,0.3939113999949768,None,233.86979170000996,233.88673669999116,233.88673669999116,234.38115729999845,234.8805885000038,234.86598169998615,234.86606659999234,234.8805885000038,235.58147360000294,235.56602239998756,,,,,,,,,,,,,,,,,,,,,,,,,,,,,,,,,,,,,,,,,,,,,,,,,,,,,,,,,,,,,,sub101,percept,4,0,2024-08-09_09h45.14.941,ASRT_percept,2023.2.3,60.12957923944067,2024-08-09 09h45.58.990258 +0800,
sequences/sub101_initial_random.csv,3,270,3,1,red,,,,0,0,0,0,0,76,76,76,,,,,,,,,,,,,,,,,,,,,,,,,,,,,235.58147360000294,,,,,,,,,,,,,235.56747179999365,235.58147360000294,235.58147360000294,235.79701819998445,235.9933059999894,1,1,0.4073447000118904,None,235.99460730000283,236.0095139000041,236.0095139000041,236.497248700005,236.99625979998382,236.98229129999527,236.98237439998775,236.99625979998382,237.6969230999821,237.68243109999457,,,,,,,,,,,,,,,,,,,,,,,,,,,,,,,,,,,,,,,,,,,,,,,,,,,,,,,,,,,,,,sub101,percept,4,0,2024-08-09_09h45.14.941,ASRT_percept,2023.2.3,60.12957923944067,2024-08-09 09h45.58.990258 +0800,
sequences/sub101_initial_random.csv,1,90,1,3,red,,,,0,0,0,0,0,77,77,77,,,,,,,,,,,,,,,,,,,,,,,,,,,,,237.6969230999821,,,,,,,,,,,,,237.68417890000273,237.6969230999821,237.6969230999821,237.8964517999848,238.09978329998557,3,1,0.3864142000093125,None,238.10128370000166,238.1123466999852,238.1123466999852,238.61280350000015,239.11247629998252,239.09860040000058,239.09868940000888,239.11247629998252,239.8127356999903,239.79769350000424,,,,,,,,,,,,,,,,,,,,,,,,,,,,,,,,,,,,,,,,,,,,,,,,,,,,,,,,,,,,,,sub101,percept,4,0,2024-08-09_09h45.14.941,ASRT_percept,2023.2.3,60.12957923944067,2024-08-09 09h45.58.990258 +0800,
sequences/sub101_initial_random.csv,3,270,3,1,red,,,,0,0,0,0,0,78,78,78,,,,,,,,,,,,,,,,,,,,,,,,,,,,,239.8127356999903,,,,,,,,,,,,,239.79910790000577,239.8127356999903,239.8127356999903,240.0283677999978,240.20080829999642,3,0,0.3812249000184238,None,240.2020857000025,240.22501649998594,240.22501649998594,240.711762299994,241.21180779999122,241.19781290000537,241.19788029999472,241.21180779999122,241.91225510000368,241.89814810000826,,,,,,,,,,,,,,,,,,,,,,,,,,,,,,,,,,,,,,,,,,,,,,,,,,,,,,,,,,,,,,sub101,percept,4,0,2024-08-09_09h45.14.941,ASRT_percept,2023.2.3,60.12957923944067,2024-08-09 09h45.58.990258 +0800,
sequences/sub101_initial_random.csv,2,180,2,2,red,,,,0,0,0,0,0,79,79,79,,,,,,,,,,,,,,,,,,,,,,,,,,,,,241.91225510000368,,,,,,,,,,,,,241.899711200007,241.91225510000368,241.91225510000368,242.1117612000089,242.41646750000655,2,1,0.49923880002461374,None,242.41803830000572,242.4384572999843,242.4384572999843,242.92804659999092,243.42816169999423,243.4144282999914,243.41450369998347,243.42816169999423,244.12931540000136,244.11438670000643,,,,,,,,,,,,,,,,,,,,,,,,,,,,,,,,,,,,,,,,,,,,,,,,,,,,,,,,,,,,,,sub101,percept,4,0,2024-08-09_09h45.14.941,ASRT_percept,2023.2.3,60.12957923944067,2024-08-09 09h45.58.990258 +0800,
sequences/sub101_initial_random.csv,2,180,2,2,red,,,,0,0,0,0,0,80,80,80,,,,,,,,,,,,,,,,,,,,,,,,,,,,,244.12931540000136,,,,,,,,,,,,,244.11598299999605,244.12931540000136,244.12931540000136,244.34447979999823,244.60114399998565,2,1,0.4665279999899212,None,244.60292509998544,244.61964829999488,244.61964829999488,245.11090440000407,245.61091149999993,245.59636319999117,245.5964485000004,245.61091149999993,246.31024359998992,246.29600889998255,,,,,,,,,,,,,,,,,,,,,,,,,,,,,,,,,,,,,,,,,,,,,,,,,,,,,,,,,,,,,,sub101,percept,4,0,2024-08-09_09h45.14.941,ASRT_percept,2023.2.3,60.12957923944067,2024-08-09 09h45.58.990258 +0800,
sequences/sub101_initial_random.csv,3,270,3,1,red,,,,0,0,0,0,0,81,81,81,,,,,,,,,,,,,,,,,,,,,,,,,,,,,246.31024359998992,,,,,,,,,,,,,246.29747379999026,246.31024359998992,246.31024359998992,246.51028829999268,246.76553820000845,1,1,0.4386040000244975,None,246.76744950001012,246.7872320000024,246.7872320000024,247.27684529998805,247.77671119998558,247.76234620000469,247.76243470000918,247.77671119998558,248.47884379999596,248.4620398999832,,,,,,,,,,,,,,,,,,,,,,,,,,,,,,,,,,,,,,,,,,,,,,,,,,,,,,,,,,,,,,sub101,percept,4,0,2024-08-09_09h45.14.941,ASRT_percept,2023.2.3,60.12957923944067,2024-08-09 09h45.58.990258 +0800,
sequences/sub101_initial_random.csv,1,90,1,3,red,,,,0,0,0,0,0,82,82,82,,,,,,,,,,,,,,,,,,,,,,,,,,,,,248.47884379999596,,,,,,,,,,,,,248.46413829998346,248.47884379999596,248.47884379999596,248.69310730000143,248.8478133000026,3,1,0.36193630000343546,None,248.84941259998595,248.86730630000238,248.86730630000238,249.35945869999705,249.85953270000755,249.84456569998292,249.84465029998682,249.85953270000755,250.55990439999732,250.5447778000089,,,,,,,,,,,,,,,,,,,,,,,,,,,,,,,,,,,,,,,,,,,,,,,,,,,,,,,,,,,,,,sub101,percept,4,0,2024-08-09_09h45.14.941,ASRT_percept,2023.2.3,60.12957923944067,2024-08-09 09h45.58.990258 +0800,
sequences/sub101_initial_random.csv,0,0,0,4,red,,,,0,0,0,0,0,83,83,83,,,,,,,,,,,,,,,,,,,,,,,,,,,,,250.55990439999732,,,,,,,,,,,,,250.54635379998945,250.55990439999732,250.55990439999732,250.75918120000279,250.9830309000099,4,1,0.4133522000047378,None,250.9848681000003,251.00387220000266,251.00387220000266,251.49205619998975,251.9922876000055,251.97748709999723,251.9775679000013,251.9922876000055,252.6925176999939,252.67833130000508,,,,,,,,,,,,,,,,,,,,,,,,,,,,,,,,,,,,,,,,,,,,,,,,,,,,,,,,,,,,,,sub101,percept,4,0,2024-08-09_09h45.14.941,ASRT_percept,2023.2.3,60.12957923944067,2024-08-09 09h45.58.990258 +0800,
sequences/sub101_initial_random.csv,1,90,1,3,red,,,,0,0,0,0,0,84,84,84,,,,,,,,,,,,,,,,,,,,,,,,,,,,,252.6925176999939,,,,,,,,,,,,,252.67940349999117,252.6925176999939,252.6925176999939,252.89186549998703,253.14736669999547,3,1,0.44192420001490973,None,253.14886339998338,253.1614648999821,253.1614648999821,253.65889180000522,254.1587205999822,254.14476299998933,254.14483589999145,254.1587205999822,254.96935609998764,254.84358399998746,,,,,,,,,,,,,,,,,,,,,,,,,,,,,,,,,,,,,,,,,,,,,,,,,,,,,,,,,,,,,,sub101,percept,4,0,2024-08-09_09h45.14.941,ASRT_percept,2023.2.3,60.12957923944067,2024-08-09 09h45.58.990258 +0800,
,,,,,,,,,,,,,,,,,,,,,,,,,,,,,,,,,,,,,,,,,,,,,,,,,,,,,,,,,,,,,,,,,,,,,,,,,,,,,254.843987500004,254.96935609998764,254.96935609998764,262.8410185999819,space,7.854208500008099,None,262.8428850999917,262.85932600000524,262.85932600000524,262.85932600000524,274.9526388999948,space,12.07983420000528,None,,,,,,,,,,,,,,,,,,,,,,,,,,,,,,,,,,,,,,,,,,,,,,,sub101,percept,4,0,2024-08-09_09h45.14.941,ASRT_percept,2023.2.3,60.12957923944067,2024-08-09 09h45.58.990258 +0800,
,1,90,2,2,red,sequences/sub101_practice_sequence_00.csv,,,,,,,,,,,0,0,0,0,0,0,0,82,,,,,,,,,,,,,,,,,,,,,276.0677301000105,,,,,,,,,,275.00138199998764,275.01148829999147,275.96910429999116,276.0490526999929,276.0677301000105,276.0677301000105,276.2693883999891,276.48943399998825,3,0,0.4108047000190709,None,276.4923226000101,276.5204923999845,276.5204923999845,277.0040921999898,277.50084019999485,277.48622319998685,277.48630550000235,277.50084019999485,278.2002865000104,278.18636669998523,,,,,,,,,,,,,,,,,,,,,,,,,,,,,,,,,,,,,,,,,,,,,,,,,,,,,,,,,,,,,,sub101,percept,4,0,2024-08-09_09h45.14.941,ASRT_percept,2023.2.3,60.12957923944067,2024-08-09 09h45.58.990258 +0800,
,3,270,0,4,red,sequences/sub101_practice_sequence_00.csv,,,,,,,,,,,0,0,0,0,0,1,1,21,,,,,,,,,,,,,,,,,,,,,278.2002865000104,,,,,,,,,,,,,278.18793039998855,278.2002865000104,278.2002865000104,278.4005790000083,278.6209997999831,1,0,0.4096509000228252,None,278.6229997999908,278.64268409999204,278.64268409999204,279.1331355999864,279.63341079998645,279.61877830000594,279.61894310000935,279.63341079998645,280.3357747999835,280.3186077999999,,,,,,,,,,,,,,,,,,,,,,,,,,,,,,,,,,,,,,,,,,,,,,,,,,,,,,,,,,,,,,sub101,percept,4,0,2024-08-09_09h45.14.941,ASRT_percept,2023.2.3,60.12957923944067,2024-08-09 09h45.58.990258 +0800,
,3,270,0,4,red,sequences/sub101_practice_sequence_00.csv,,,,,,,,,,,0,0,0,0,0,2,2,43,,,,,,,,,,,,,,,,,,,,,280.3357747999835,,,,,,,,,,,,,280.320630000002,280.3357747999835,280.3357747999835,280.5496332999901,280.9037243000057,4,1,0.5567503000202123,None,280.9061206000042,280.9231792000064,280.9231792000064,281.41818079998484,281.9183548000001,281.902609199984,281.902694599994,281.9183548000001,,282.6182060999854,,,,,,,,,,,,,,,,,,,,,,,,,,,,,,,,,,,,,,,,,,,,,,,,,,,,,,,,,,,,,,sub101,percept,4,0,2024-08-09_09h45.14.941,ASRT_percept,2023.2.3,60.12957923944067,2024-08-09 09h45.58.990258 +0800,
,3,270,0,4,red,sequences/sub101_practice_sequence_00.csv,,,,,,,,,,,0,0,0,0,0,3,3,39,,,,,,,,,,,,,,,,,,,,,282.63127919999533,,,,,,,,,,,,,282.62033689999953,282.63127919999533,282.63127919999533,282.8334282999858,283.17001440000604,4,1,0.5277727999782655,None,283.17136720000417,283.1836181000108,283.1836181000108,283.68219130000216,284.18188990000635,284.168534299999,284.1686517999915,284.18188990000635,284.8844385999837,284.8670917999989,,,,,,,,,,,,,,,,,,,,,,,,,,,,,,,,,,,,,,,,,,,,,,,,,,,,,,,,,,,,,,sub101,percept,4,0,2024-08-09_09h45.14.941,ASRT_percept,2023.2.3,60.12957923944067,2024-08-09 09h45.58.990258 +0800,
,1,90,2,2,red,sequences/sub101_practice_sequence_00.csv,,,,,,,,,,,0,0,0,0,0,4,4,56,,,,,,,,,,,,,,,,,,,,,284.8844385999837,,,,,,,,,,,,,284.86914850000176,284.8844385999837,284.8844385999837,285.09871230000863,285.55202719999943,2,1,0.655151900020428,None,285.55393890000414,285.5705004000047,285.5705004000047,286.0644723000005,286.56417299999157,286.55254070000956,286.5526286000095,286.56417299999157,287.2696403999871,287.25204019999364,,,,,,,,,,,,,,,,,,,,,,,,,,,,,,,,,,,,,,,,,,,,,,,,,,,,,,,,,,,,,,sub101,percept,4,0,2024-08-09_09h45.14.941,ASRT_percept,2023.2.3,60.12957923944067,2024-08-09 09h45.58.990258 +0800,
,1,90,2,2,red,sequences/sub101_practice_sequence_00.csv,,,,,,,,,,,0,0,0,0,0,5,5,79,,,,,,,,,,,,,,,,,,,,,287.2696403999871,,,,,,,,,,,,,287.253478300001,287.2696403999871,287.2696403999871,287.48070119999466,287.9683880000084,2,1,0.6846851000154857,None,287.970161300007,287.984060399991,287.984060399991,288.4807453000103,288.9804666999844,288.96611599999596,288.9662027999875,288.9804666999844,289.6793762999878,289.66480209998554,,,,,,,,,,,,,,,,,,,,,,,,,,,,,,,,,,,,,,,,,,,,,,,,,,,,,,,,,,,,,,sub101,percept,4,0,2024-08-09_09h45.14.941,ASRT_percept,2023.2.3,60.12957923944067,2024-08-09 09h45.58.990258 +0800,
,3,270,0,4,red,sequences/sub101_practice_sequence_00.csv,,,,,,,,,,,0,0,0,0,0,6,6,75,,,,,,,,,,,,,,,,,,,,,289.6793762999878,,,,,,,,,,,,,289.6661002000037,289.6793762999878,289.6793762999878,289.8801199999871,290.26711179999984,4,1,0.5742108999984339,None,290.26897800000734,290.2888441999967,290.2888441999967,290.77975369998603,291.27942559999065,291.26506549998885,291.2651538999926,291.27942559999065,291.97945310000796,291.96491869998863,,,,,,,,,,,,,,,,,,,,,,,,,,,,,,,,,,,,,,,,,,,,,,,,,,,,,,,,,,,,,,sub101,percept,4,0,2024-08-09_09h45.14.941,ASRT_percept,2023.2.3,60.12957923944067,2024-08-09 09h45.58.990258 +0800,
,2,180,3,1,red,sequences/sub101_practice_sequence_00.csv,,,,,,,,,,,0,0,0,0,0,7,7,49,,,,,,,,,,,,,,,,,,,,,291.97945310000796,,,,,,,,,,,,,291.966148699983,291.97945310000796,291.97945310000796,292.1798582999909,292.7189561999985,1,1,0.7338265999860596,None,292.7207191000052,292.7385837000038,292.7385837000038,293.22894939998514,293.72887240001,293.7137698000006,293.713860799995,293.72887240001,294.4305216000066,294.4141943999857,,,,,,,,,,,,,,,,,,,,,,,,,,,,,,,,,,,,,,,,,,,,,,,,,,,,,,,,,,,,,,sub101,percept,4,0,2024-08-09_09h45.14.941,ASRT_percept,2023.2.3,60.12957923944067,2024-08-09 09h45.58.990258 +0800,
,2,180,3,1,red,sequences/sub101_practice_sequence_00.csv,,,,,,,,,,,0,0,0,0,0,8,8,77,,,,,,,,,,,,,,,,,,,,,294.4305216000066,,,,,,,,,,,,,294.4159146999882,294.4305216000066,294.4305216000066,294.64521849999437,294.9169993000105,1,1,0.47603310001431964,None,294.91884160001064,294.9388401999895,294.9388401999895,295.42825140000787,295.9284512999875,295.91398549999576,295.9140715000103,295.9284512999875,296.6314169999969,296.6138296999852,,,,,,,,,,,,,,,,,,,,,,,,,,,,,,,,,,,,,,,,,,,,,,,,,,,,,,,,,,,,,,sub101,percept,4,0,2024-08-09_09h45.14.941,ASRT_percept,2023.2.3,60.12957923944067,2024-08-09 09h45.58.990258 +0800,
,1,90,2,2,red,sequences/sub101_practice_sequence_00.csv,,,,,,,,,,,0,0,0,0,0,9,9,48,,,,,,,,,,,,,,,,,,,,,296.6314169999969,,,,,,,,,,,,,296.61537079999107,296.6314169999969,296.6314169999969,296.8451691000082,297.2818752999883,2,1,0.6392441999923903,None,297.28375979998964,297.2998857999919,297.2998857999919,297.7938548999955,298.2936744999897,298.27965969999786,298.2797450000071,298.2936744999897,298.9976902999915,298.98004560000845,,,,,,,,,,,,,,,,,,,,,,,,,,,,,,,,,,,,,,,,,,,,,,,,,,,,,,,,,,,,,,sub101,percept,4,0,2024-08-09_09h45.14.941,ASRT_percept,2023.2.3,60.12957923944067,2024-08-09 09h45.58.990258 +0800,
,1,90,2,2,red,sequences/sub101_practice_sequence_00.csv,,,,,,,,,,,0,0,0,0,0,10,10,34,,,,,,,,,,,,,,,,,,,,,298.9976902999915,,,,,,,,,,,,,298.98183730000164,298.9976902999915,298.9976902999915,299.2108920000028,299.5140063999861,2,1,0.5041225999884773,None,299.51575779999257,299.53478670000914,299.53478670000914,300.0276654000045,300.52700519998325,300.5121017000056,300.5121864999819,300.52700519998325,301.22621409999556,301.2115344000049,,,,,,,,,,,,,,,,,,,,,,,,,,,,,,,,,,,,,,,,,,,,,,,,,,,,,,,,,,,,,,sub101,percept,4,0,2024-08-09_09h45.14.941,ASRT_percept,2023.2.3,60.12957923944067,2024-08-09 09h45.58.990258 +0800,
,1,90,2,2,red,sequences/sub101_practice_sequence_00.csv,,,,,,,,,,,0,0,0,0,0,11,11,81,,,,,,,,,,,,,,,,,,,,,301.22621409999556,,,,,,,,,,,,,301.2127072000003,301.22621409999556,301.22621409999556,301.4263099000091,301.6814014999836,2,1,0.44286000001011416,None,301.6830338999862,301.6992884000065,301.6992884000065,302.1928021000058,302.6927119999891,302.67826280000736,302.67835599998944,302.6927119999891,,303.391277799994,,,,,,,,,,,,,,,,,,,,,,,,,,,,,,,,,,,,,,,,,,,,,,,,,,,,,,,,,,,,,,sub101,percept,4,0,2024-08-09_09h45.14.941,ASRT_percept,2023.2.3,60.12957923944067,2024-08-09 09h45.58.990258 +0800,
,2,180,3,1,red,sequences/sub101_practice_sequence_00.csv,,,,,,,,,,,0,0,0,0,0,12,12,72,,,,,,,,,,,,,,,,,,,,,303.4081409999926,,,,,,,,,,,,,303.3917666999914,303.4081409999926,303.4081409999926,303.6093258000037,304.0660996999941,1,1,0.6508351999800652,None,304.06795820000116,304.08807599998545,304.08807599998545,304.57536550000077,305.0753870999906,305.06181270000525,305.0619015999837,305.0753870999906,305.7771256999986,305.7606483999989,,,,,,,,,,,,,,,,,,,,,,,,,,,,,,,,,,,,,,,,,,,,,,,,,,,,,,,,,,,,,,sub101,percept,4,0,2024-08-09_09h45.14.941,ASRT_percept,2023.2.3,60.12957923944067,2024-08-09 09h45.58.990258 +0800,
,0,0,1,3,red,sequences/sub101_practice_sequence_00.csv,,,,,,,,,,,0,0,0,0,0,13,13,45,,,,,,,,,,,,,,,,,,,,,305.7771256999986,,,,,,,,,,,,,305.762656100007,305.7771256999986,305.7771256999986,305.9917390999908,306.4152710000053,3,1,0.6327491999836639,None,306.41760169999907,306.43322079998325,306.43322079998325,306.92512140001054,307.42486440000357,307.41037480000523,307.41045880000456,307.42486440000357,308.1277226000093,308.11181000000215,,,,,,,,,,,,,,,,,,,,,,,,,,,,,,,,,,,,,,,,,,,,,,,,,,,,,,,,,,,,,,sub101,percept,4,0,2024-08-09_09h45.14.941,ASRT_percept,2023.2.3,60.12957923944067,2024-08-09 09h45.58.990258 +0800,
,1,90,2,2,red,sequences/sub101_practice_sequence_00.csv,,,,,,,,,,,0,0,0,0,0,14,14,28,,,,,,,,,,,,,,,,,,,,,308.1277226000093,,,,,,,,,,,,,308.11329169999226,308.1277226000093,308.1277226000093,308.34090779998223,308.712563899986,2,1,0.5778762999980245,None,308.7144243000075,308.7315813000023,308.7315813000023,309.2239711000002,309.72381679998944,309.71011640000506,309.7102060999896,309.72381679998944,310.42600569999195,310.4090322999982,,,,,,,,,,,,,,,,,,,,,,,,,,,,,,,,,,,,,,,,,,,,,,,,,,,,,,,,,,,,,,sub101,percept,4,0,2024-08-09_09h45.14.941,ASRT_percept,2023.2.3,60.12957923944067,2024-08-09 09h45.58.990258 +0800,
,0,0,1,3,red,sequences/sub101_practice_sequence_00.csv,,,,,,,,,,,0,0,0,0,0,15,15,42,,,,,,,,,,,,,,,,,,,,,310.42600569999195,,,,,,,,,,,,,310.41091370000504,310.42600569999195,310.42600569999195,310.64055219999864,311.0289960000082,3,1,0.5906037999957334,None,311.0312747999851,311.0428377999924,311.0428377999924,311.5399791999953,312.03984189999755,312.02569219999714,312.0257758999942,312.03984189999755,312.74261889999616,312.72510779998265,,,,,,,,,,,,,,,,,,,,,,,,,,,,,,,,,,,,,,,,,,,,,,,,,,,,,,,,,,,,,,sub101,percept,4,0,2024-08-09_09h45.14.941,ASRT_percept,2023.2.3,60.12957923944067,2024-08-09 09h45.58.990258 +0800,
,2,180,3,1,red,sequences/sub101_practice_sequence_00.csv,,,,,,,,,,,0,0,0,0,0,16,16,35,,,,,,,,,,,,,,,,,,,,,312.74261889999616,,,,,,,,,,,,,312.7269194999826,312.74261889999616,312.74261889999616,312.95637709999573,313.3111862000078,1,1,0.5556035999907181,None,313.31288589999895,313.32959569999366,313.32959569999366,313.82575260000885,314.32242360000964,314.3092973000021,314.3093794999877,314.32242360000964,315.02338169998256,315.0081793999998,,,,,,,,,,,,,,,,,,,,,,,,,,,,,,,,,,,,,,,,,,,,,,,,,,,,,,,,,,,,,,sub101,percept,4,0,2024-08-09_09h45.14.941,ASRT_percept,2023.2.3,60.12957923944067,2024-08-09 09h45.58.990258 +0800,
,1,90,2,2,red,sequences/sub101_practice_sequence_00.csv,,,,,,,,,,,0,0,0,0,0,17,17,67,,,,,,,,,,,,,,,,,,,,,315.02338169998256,,,,,,,,,,,,,315.01016959999106,315.02338169998256,315.02338169998256,315.2370449999871,315.73215959998197,2,1,0.7029141000239179,None,315.7339462999953,315.75435060000746,315.75435060000746,316.23881330000586,316.7398672999989,316.72706119998475,316.72714480001014,316.7398672999989,317.4408775999909,317.4259446999931,,,,,,,,,,,,,,,,,,,,,,,,,,,,,,,,,,,,,,,,,,,,,,,,,,,,,,,,,,,,,,sub101,percept,4,0,2024-08-09_09h45.14.941,ASRT_percept,2023.2.3,60.12957923944067,2024-08-09 09h45.58.990258 +0800,
,2,180,3,1,red,sequences/sub101_practice_sequence_00.csv,,,,,,,,,,,0,0,0,0,0,18,18,55,,,,,,,,,,,,,,,,,,,,,317.4408775999909,,,,,,,,,,,,,317.42752259998815,317.4408775999909,317.4408775999909,317.65474019999965,317.9770569000102,1,1,0.5297475999977905,None,317.97877549999976,317.9960161999916,317.9960161999916,318.4880722000089,318.9875582999957,318.97333710000385,318.97374640000635,318.9875582999957,319.68642980000004,319.67361609998625,,,,,,,,,,,,,,,,,,,,,,,,,,,,,,,,,,,,,,,,,,,,,,,,,,,,,,,,,,,,,,sub101,percept,4,0,2024-08-09_09h45.14.941,ASRT_percept,2023.2.3,60.12957923944067,2024-08-09 09h45.58.990258 +0800,
,1,90,2,2,red,sequences/sub101_practice_sequence_00.csv,,,,,,,,,,,0,0,0,0,0,19,19,13,,,,,,,,,,,,,,,,,,,,,319.68642980000004,,,,,,,,,,,,,319.67509340000106,319.68642980000004,319.68642980000004,319.88705339998705,320.2252670000016,2,1,0.532473699975526,None,320.22636390000116,320.23944050000864,320.23944050000864,320.7387177000055,321.23637589998543,321.22262580000097,321.22269729999243,321.23637589998543,321.93722120000166,321.92217939998955,,,,,,,,,,,,,,,,,,,,,,,,,,,,,,,,,,,,,,,,,,,,,,,,,,,,,,,,,,,,,,sub101,percept,4,0,2024-08-09_09h45.14.941,ASRT_percept,2023.2.3,60.12957923944067,2024-08-09 09h45.58.990258 +0800,
,3,270,0,4,red,sequences/sub101_practice_sequence_00.csv,,,,,,,,,,,0,0,0,0,0,20,20,4,,,,,,,,,,,,,,,,,,,,,321.93722120000166,,,,,,,,,,,,,321.9249667999975,321.93722120000166,321.93722120000166,322.13876390000223,322.4744960000098,4,1,0.5328117000171915,None,322.47596579999663,322.4924868000089,322.4924868000089,322.9866059999913,323.48611609998625,323.47133219998796,323.4714236999862,323.48611609998625,324.18708100001095,324.1716188999999,,,,,,,,,,,,,,,,,,,,,,,,,,,,,,,,,,,,,,,,,,,,,,,,,,,,,,,,,,,,,,sub101,percept,4,0,2024-08-09_09h45.14.941,ASRT_percept,2023.2.3,60.12957923944067,2024-08-09 09h45.58.990258 +0800,
,1,90,2,2,red,sequences/sub101_practice_sequence_00.csv,,,,,,,,,,,0,0,0,0,0,21,21,47,,,,,,,,,,,,,,,,,,,,,324.18708100001095,,,,,,,,,,,,,324.17309659998864,324.18708100001095,324.18708100001095,324.4030597000092,324.6600431999832,2,1,0.4575215000077151,None,324.661801499984,324.68103919998975,324.68103919998975,325.1691082000034,325.6678088000044,325.6568406999868,325.6568990999949,325.6678088000044,326.3708893999865,326.3569251000008,,,,,,,,,,,,,,,,,,,,,,,,,,,,,,,,,,,,,,,,,,,,,,,,,,,,,,,,,,,,,,sub101,percept,4,0,2024-08-09_09h45.14.941,ASRT_percept,2023.2.3,60.12957923944067,2024-08-09 09h45.58.990258 +0800,
,0,0,1,3,red,sequences/sub101_practice_sequence_00.csv,,,,,,,,,,,0,0,0,0,0,22,22,1,,,,,,,,,,,,,,,,,,,,,326.3708893999865,,,,,,,,,,,,,326.358415900002,326.3708893999865,326.3708893999865,326.5682705999934,326.9404321000038,3,1,0.5506952999858186,None,326.94206969998777,326.96009489998687,326.96009489998687,327.45365089998813,327.95077540000784,327.936936699989,327.9370307000063,327.95077540000784,328.6511019000027,328.63541519999853,,,,,,,,,,,,,,,,,,,,,,,,,,,,,,,,,,,,,,,,,,,,,,,,,,,,,,,,,,,,,,sub101,percept,4,0,2024-08-09_09h45.14.941,ASRT_percept,2023.2.3,60.12957923944067,2024-08-09 09h45.58.990258 +0800,
,3,270,0,4,red,sequences/sub101_practice_sequence_00.csv,,,,,,,,,,,0,0,0,0,0,23,23,51,,,,,,,,,,,,,,,,,,,,,328.6511019000027,,,,,,,,,,,,,328.6363352999906,328.6511019000027,328.6511019000027,328.8518926999823,329.32193099998403,4,1,0.6643087999837007,None,329.3235393000068,329.33877219998976,329.33877219998976,329.8338592000073,330.33401739998953,330.320392499998,330.3204756999912,330.33401739998953,331.03659750000224,331.01943330001086,,,,,,,,,,,,,,,,,,,,,,,,,,,,,,,,,,,,,,,,,,,,,,,,,,,,,,,,,,,,,,sub101,percept,4,0,2024-08-09_09h45.14.941,ASRT_percept,2023.2.3,60.12957923944067,2024-08-09 09h45.58.990258 +0800,
,0,0,1,3,red,sequences/sub101_practice_sequence_00.csv,,,,,,,,,,,0,0,0,0,0,24,24,65,,,,,,,,,,,,,,,,,,,,,331.03659750000224,,,,,,,,,,,,,331.0213300999894,331.03659750000224,331.03659750000224,331.25024980001035,331.6206828999857,3,1,0.5704628999810666,None,331.6223020000034,331.64055740000913,331.64055740000913,332.1337388000102,332.63299690000713,332.61923229999957,332.61932060000254,332.63299690000713,333.3357454999932,333.3187280999846,,,,,,,,,,,,,,,,,,,,,,,,,,,,,,,,,,,,,,,,,,,,,,,,,,,,,,,,,,,,,,sub101,percept,4,0,2024-08-09_09h45.14.941,ASRT_percept,2023.2.3,60.12957923944067,2024-08-09 09h45.58.990258 +0800,
,0,0,1,3,red,sequences/sub101_practice_sequence_00.csv,,,,,,,,,,,0,0,0,0,0,25,25,69,,,,,,,,,,,,,,,,,,,,,333.3357454999932,,,,,,,,,,,,,333.32071239998913,333.3357454999932,333.3357454999932,333.55027790000895,333.83797560000676,3,1,0.4909326999913901,None,333.83971989998827,333.85378430000856,333.85378430000856,334.3497179999831,334.84898370000883,334.83459429998766,334.83468259999063,334.84898370000883,335.55055839999113,335.5355605999939,,,,,,,,,,,,,,,,,,,,,,,,,,,,,,,,,,,,,,,,,,,,,,,,,,,,,,,,,,,,,,sub101,percept,4,0,2024-08-09_09h45.14.941,ASRT_percept,2023.2.3,60.12957923944067,2024-08-09 09h45.58.990258 +0800,
,1,90,2,2,red,sequences/sub101_practice_sequence_00.csv,,,,,,,,,,,0,0,0,0,0,26,26,9,,,,,,,,,,,,,,,,,,,,,335.55055839999113,,,,,,,,,,,,,335.5370087999909,335.55055839999113,335.55055839999113,335.76590510000824,336.1547139000031,2,1,0.5982197000121232,None,336.1563475999865,336.1761173999985,336.1761173999985,336.66552959999535,337.16524139998364,337.1508785999904,337.15094880000106,337.16524139998364,337.86581099999603,337.8500370999973,,,,,,,,,,,,,,,,,,,,,,,,,,,,,,,,,,,,,,,,,,,,,,,,,,,,,,,,,,,,,,sub101,percept,4,0,2024-08-09_09h45.14.941,ASRT_percept,2023.2.3,60.12957923944067,2024-08-09 09h45.58.990258 +0800,
,0,0,1,3,red,sequences/sub101_practice_sequence_00.csv,,,,,,,,,,,0,0,0,0,0,27,27,18,,,,,,,,,,,,,,,,,,,,,337.86581099999603,,,,,,,,,,,,,337.85191659998964,337.86581099999603,337.86581099999603,338.0652560000017,338.4034454000066,3,1,0.5319682000263128,None,338.40507579999394,338.4247730000061,338.4247730000061,338.9172665000078,339.4174139999959,339.4008109999995,339.40089369998896,339.4174139999959,,340.1176039999991,,,,,,,,,,,,,,,,,,,,,,,,,,,,,,,,,,,,,,,,,,,,,,,,,,,,,,,,,,,,,,sub101,percept,4,0,2024-08-09_09h45.14.941,ASRT_percept,2023.2.3,60.12957923944067,2024-08-09 09h45.58.990258 +0800,
,2,180,3,1,red,sequences/sub101_practice_sequence_00.csv,,,,,,,,,,,0,0,0,0,0,28,28,25,,,,,,,,,,,,,,,,,,,,,340.1313531000051,,,,,,,,,,,,,340.11896329998854,340.1313531000051,340.1313531000051,340.3314532999939,340.6659870999865,1,1,0.5176132000051439,None,340.6675993000099,340.6803138999967,340.6803138999967,341.18159289998584,341.6804676000029,341.66807489999337,341.6681675,341.6804676000029,342.3829767999996,342.36648910000804,,,,,,,,,,,,,,,,,,,,,,,,,,,,,,,,,,,,,,,,,,,,,,,,,,,,,,,,,,,,,,sub101,percept,4,0,2024-08-09_09h45.14.941,ASRT_percept,2023.2.3,60.12957923944067,2024-08-09 09h45.58.990258 +0800,
,1,90,2,2,red,sequences/sub101_practice_sequence_00.csv,,,,,,,,,,,0,0,0,0,0,29,29,30,,,,,,,,,,,,,,,,,,,,,342.3829767999996,,,,,,,,,,,,,342.3679450000054,342.3829767999996,342.3829767999996,342.59807209999417,342.91741049999837,2,1,0.5169143000093754,None,342.9190403999819,342.9332127000089,342.9332127000089,343.42967620000127,343.92974140000297,343.91529030000675,343.9153795999882,343.92974140000297,344.6341388000001,344.6157722999924,,,,,,,,,,,,,,,,,,,,,,,,,,,,,,,,,,,,,,,,,,,,,,,,,,,,,,,,,,,,,,sub101,percept,4,0,2024-08-09_09h45.14.941,ASRT_percept,2023.2.3,60.12957923944067,2024-08-09 09h45.58.990258 +0800,
,1,90,2,2,red,sequences/sub101_practice_sequence_00.csv,,,,,,,,,,,0,0,0,0,0,30,30,46,,,,,,,,,,,,,,,,,,,,,344.6341388000001,,,,,,,,,,,,,344.61748359998455,344.6341388000001,344.6341388000001,344.8460630000045,345.05030329999863,2,1,0.4057326999900397,None,345.0520292999863,345.07269810000435,345.07269810000435,345.56260259999544,346.06222689998685,346.0475873000105,346.04765540000517,346.06222689998685,346.7629086000088,346.74759889999405,,,,,,,,,,,,,,,,,,,,,,,,,,,,,,,,,,,,,,,,,,,,,,,,,,,,,,,,,,,,,,sub101,percept,4,0,2024-08-09_09h45.14.941,ASRT_percept,2023.2.3,60.12957923944067,2024-08-09 09h45.58.990258 +0800,
,1,90,2,2,red,sequences/sub101_practice_sequence_00.csv,,,,,,,,,,,0,0,0,0,0,31,31,59,,,,,,,,,,,,,,,,,,,,,346.7629086000088,,,,,,,,,,,,,346.74881900000037,346.7629086000088,346.7629086000088,346.9787374000007,347.26566129998537,2,1,0.487618899991503,None,347.26766360001056,347.28348469999037,347.28348469999037,347.77930289998767,348.27848589999485,348.26354189999984,348.2636225000024,348.27848589999485,348.97862829998485,348.96327310000197,,,,,,,,,,,,,,,,,,,,,,,,,,,,,,,,,,,,,,,,,,,,,,,,,,,,,,,,,,,,,,sub101,percept,4,0,2024-08-09_09h45.14.941,ASRT_percept,2023.2.3,60.12957923944067,2024-08-09 09h45.58.990258 +0800,
,0,0,1,3,red,sequences/sub101_practice_sequence_00.csv,,,,,,,,,,,0,0,0,0,0,32,32,61,,,,,,,,,,,,,,,,,,,,,348.97862829998485,,,,,,,,,,,,,348.964538900007,348.97862829998485,348.97862829998485,349.17810449999524,349.5374638999929,3,1,0.5525718999851961,None,349.5391171000083,349.56060170001,349.56060170001,350.0437535000092,350.54481829999713,350.5323619999981,350.5329756999854,350.54481829999713,351.24406649998855,351.2305112000031,,,,,,,,,,,,,,,,,,,,,,,,,,,,,,,,,,,,,,,,,,,,,,,,,,,,,,,,,,,,,,sub101,percept,4,0,2024-08-09_09h45.14.941,ASRT_percept,2023.2.3,60.12957923944067,2024-08-09 09h45.58.990258 +0800,
,3,270,0,4,red,sequences/sub101_practice_sequence_00.csv,,,,,,,,,,,0,0,0,0,0,33,33,22,,,,,,,,,,,,,,,,,,,,,351.24406649998855,,,,,,,,,,,,,351.2322004000016,351.24406649998855,351.24406649998855,351.446686899988,351.9507678000082,4,1,0.6943728000042029,None,351.9521090000053,351.96346589998575,351.96346589998575,352.4609588999883,352.9596429000085,352.948893599998,352.94896839998546,352.9596429000085,353.666003499995,353.64916339999763,,,,,,,,,,,,,,,,,,,,,,,,,,,,,,,,,,,,,,,,,,,,,,,,,,,,,,,,,,,,,,sub101,percept,4,0,2024-08-09_09h45.14.941,ASRT_percept,2023.2.3,60.12957923944067,2024-08-09 09h45.58.990258 +0800,
,1,90,2,2,red,sequences/sub101_practice_sequence_00.csv,,,,,,,,,,,0,0,0,0,0,34,34,12,,,,,,,,,,,,,,,,,,,,,353.666003499995,,,,,,,,,,,,,353.6510619999899,353.666003499995,353.666003499995,353.8763684000005,354.1648614000005,2,1,0.49067910001031123,None,354.16665249998914,354.17959729998256,354.17959729998256,354.6766556999937,355.17577259999234,355.1618280999828,355.16190869998536,355.17577259999234,355.8755940999836,355.86209330000565,,,,,,,,,,,,,,,,,,,,,,,,,,,,,,,,,,,,,,,,,,,,,,,,,,,,,,,,,,,,,,sub101,percept,4,0,2024-08-09_09h45.14.941,ASRT_percept,2023.2.3,60.12957923944067,2024-08-09 09h45.58.990258 +0800,
,1,90,2,2,red,sequences/sub101_practice_sequence_00.csv,,,,,,,,,,,0,0,0,0,0,35,35,76,,,,,,,,,,,,,,,,,,,,,355.8755940999836,,,,,,,,,,,,,355.86357449999196,355.8755940999836,355.8755940999836,356.07582040000125,356.5807504999975,2,1,0.691892300004838,None,356.58252289998927,356.59731459998875,356.59731459998875,357.09285310000996,357.5924893000047,357.5773618000094,357.5774332000001,357.5924893000047,,358.29204880000907,,,,,,,,,,,,,,,,,,,,,,,,,,,,,,,,,,,,,,,,,,,,,,,,,,,,,,,,,,,,,,sub101,percept,4,0,2024-08-09_09h45.14.941,ASRT_percept,2023.2.3,60.12957923944067,2024-08-09 09h45.58.990258 +0800,
,3,270,0,4,red,sequences/sub101_practice_sequence_00.csv,,,,,,,,,,,0,0,0,0,0,36,36,62,,,,,,,,,,,,,,,,,,,,,358.30798099999083,,,,,,,,,,,,,358.2933803999913,358.30798099999083,358.30798099999083,358.50827879999997,358.86316909999005,4,1,0.5440323000075296,None,358.8648245999939,358.88205789998756,358.88205789998756,359.3747438999999,359.8743601999886,359.8598730000085,359.8599400999956,359.8743601999886,360.57475390000036,360.5598054000002,,,,,,,,,,,,,,,,,,,,,,,,,,,,,,,,,,,,,,,,,,,,,,,,,,,,,,,,,,,,,,sub101,percept,4,0,2024-08-09_09h45.14.941,ASRT_percept,2023.2.3,60.12957923944067,2024-08-09 09h45.58.990258 +0800,
,3,270,0,4,red,sequences/sub101_practice_sequence_00.csv,,,,,,,,,,,0,0,0,0,0,37,37,68,,,,,,,,,,,,,,,,,,,,,360.57475390000036,,,,,,,,,,,,,360.56183960000635,360.57475390000036,360.57475390000036,360.7747406999988,361.0621484000003,4,1,0.4805894000164699,None,361.0635723999876,361.08147309999913,361.08147309999913,361.5743109000032,362.0736600999953,362.05952549999347,362.0596080000105,362.0736600999953,362.7761582999956,362.7603694999998,,,,,,,,,,,,,,,,,,,,,,,,,,,,,,,,,,,,,,,,,,,,,,,,,,,,,,,,,,,,,,sub101,percept,4,0,2024-08-09_09h45.14.941,ASRT_percept,2023.2.3,60.12957923944067,2024-08-09 09h45.58.990258 +0800,
,2,180,3,1,red,sequences/sub101_practice_sequence_00.csv,,,,,,,,,,,0,0,0,0,0,38,38,15,,,,,,,,,,,,,,,,,,,,,362.7761582999956,,,,,,,,,,,,,362.76211270000204,362.7761582999956,362.7761582999956,362.9903373999987,363.28063019999536,1,1,0.4981724999961443,None,363.2824533999956,363.29767460000585,363.29767460000585,363.78958519999287,364.28967679999187,364.2752543000097,364.27533579999,364.28967679999187,364.9904300000053,364.97539810001035,,,,,,,,,,,,,,,,,,,,,,,,,,,,,,,,,,,,,,,,,,,,,,,,,,,,,,,,,,,,,,sub101,percept,4,0,2024-08-09_09h45.14.941,ASRT_percept,2023.2.3,60.12957923944067,2024-08-09 09h45.58.990258 +0800,
,1,90,2,2,red,sequences/sub101_practice_sequence_00.csv,,,,,,,,,,,0,0,0,0,0,39,39,54,,,,,,,,,,,,,,,,,,,,,364.9904300000053,,,,,,,,,,,,,364.9765667000029,364.9904300000053,364.9904300000053,365.2062113999855,365.5114992999879,2,1,0.5137379000079818,None,365.5130671999941,365.5301700999844,365.5301700999844,366.02307960001053,366.52302079999936,366.507875899988,366.50796319998335,366.52302079999936,367.2236060999858,367.207627900003,,,,,,,,,,,,,,,,,,,,,,,,,,,,,,,,,,,,,,,,,,,,,,,,,,,,,,,,,,,,,,sub101,percept,4,0,2024-08-09_09h45.14.941,ASRT_percept,2023.2.3,60.12957923944067,2024-08-09 09h45.58.990258 +0800,
,3,270,0,4,red,sequences/sub101_practice_sequence_00.csv,,,,,,,,,,,0,0,0,0,0,40,40,5,,,,,,,,,,,,,,,,,,,,,367.2236060999858,,,,,,,,,,,,,367.2090876000002,367.2236060999858,367.2236060999858,367.42590969998855,367.7280169999867,4,1,0.494217600004049,None,367.73064200000954,367.7498340999882,367.7498340999882,368.23903920000885,368.73863449998316,368.7260746000102,368.72616449999623,368.73863449998316,369.4380627000064,369.4234242000093,,,,,,,,,,,,,,,,,,,,,,,,,,,,,,,,,,,,,,,,,,,,,,,,,,,,,,,,,,,,,,sub101,percept,4,0,2024-08-09_09h45.14.941,ASRT_percept,2023.2.3,60.12957923944067,2024-08-09 09h45.58.990258 +0800,
,2,180,3,1,red,sequences/sub101_practice_sequence_00.csv,,,,,,,,,,,0,0,0,0,0,41,41,31,,,,,,,,,,,,,,,,,,,,,369.4380627000064,,,,,,,,,,,,,369.42465699999593,369.4380627000064,369.4380627000064,369.6379920000036,369.9606438000046,1,1,0.5082717000041157,None,369.9620184999949,369.9785285999824,369.9785285999824,370.47157029999653,370.97153089998756,370.9563236999966,370.9563923999958,370.97153089998756,371.6704622999823,371.656210199988,,,,,,,,,,,,,,,,,,,,,,,,,,,,,,,,,,,,,,,,,,,,,,,,,,,,,,,,,,,,,,sub101,percept,4,0,2024-08-09_09h45.14.941,ASRT_percept,2023.2.3,60.12957923944067,2024-08-09 09h45.58.990258 +0800,
,0,0,1,3,red,sequences/sub101_practice_sequence_00.csv,,,,,,,,,,,0,0,0,0,0,42,42,24,,,,,,,,,,,,,,,,,,,,,371.6704622999823,,,,,,,,,,,,,371.65765710000414,371.6704622999823,371.6704622999823,371.87060510000447,372.1416723000002,3,1,0.4547339999990072,None,372.1434079000028,372.1601577999827,372.1601577999827,372.6537037999951,373.15377509998507,373.1392858999898,373.13937129999977,373.15377509998507,373.85567150000134,373.83989870001096,,,,,,,,,,,,,,,,,,,,,,,,,,,,,,,,,,,,,,,,,,,,,,,,,,,,,,,,,,,,,,sub101,percept,4,0,2024-08-09_09h45.14.941,ASRT_percept,2023.2.3,60.12957923944067,2024-08-09 09h45.58.990258 +0800,
,2,180,3,1,red,sequences/sub101_practice_sequence_00.csv,,,,,,,,,,,0,0,0,0,0,43,43,66,,,,,,,,,,,,,,,,,,,,,373.85567150000134,,,,,,,,,,,,,373.8413398999837,373.85567150000134,373.85567150000134,374.07004620000953,374.45880180000677,1,1,0.5831596000061836,None,374.4607015000074,374.4771461999917,374.4771461999917,374.9807227999845,375.4695502999821,375.45516879999195,375.4552460999985,375.4695502999821,376.17077920000884,376.1553056999983,,,,,,,,,,,,,,,,,,,,,,,,,,,,,,,,,,,,,,,,,,,,,,,,,,,,,,,,,,,,,,sub101,percept,4,0,2024-08-09_09h45.14.941,ASRT_percept,2023.2.3,60.12957923944067,2024-08-09 09h45.58.990258 +0800,
,1,90,2,2,red,sequences/sub101_practice_sequence_00.csv,,,,,,,,,,,0,0,0,0,0,44,44,53,,,,,,,,,,,,,,,,,,,,,376.17077920000884,,,,,,,,,,,,,376.15679320000345,376.17077920000884,376.17077920000884,376.38689590001013,376.79065119998995,2,1,0.6051727999874856,None,376.79233060000115,376.8086800999881,376.8086800999881,377.3028280999861,377.8030844999885,377.78793279998354,377.7880210999865,377.8030844999885,378.5051711999986,378.4881134000025,,,,,,,,,,,,,,,,,,,,,,,,,,,,,,,,,,,,,,,,,,,,,,,,,,,,,,,,,,,,,,sub101,percept,4,0,2024-08-09_09h45.14.941,ASRT_percept,2023.2.3,60.12957923944067,2024-08-09 09h45.58.990258 +0800,
,0,0,1,3,red,sequences/sub101_practice_sequence_00.csv,,,,,,,,,,,0,0,0,0,0,45,45,23,,,,,,,,,,,,,,,,,,,,,378.5051711999986,,,,,,,,,,,,,378.4896713999915,378.5051711999986,378.5051711999986,378.7198311999964,378.95858109998517,3,1,0.44818919998942874,None,378.9604571000091,378.97573519998696,378.97573519998696,379.4682813999825,379.96840969999903,379.95422630000394,379.9543224000081,379.96840969999903,380.6679012000095,380.65413559999433,,,,,,,,,,,,,,,,,,,,,,,,,,,,,,,,,,,,,,,,,,,,,,,,,,,,,,,,,,,,,,sub101,percept,4,0,2024-08-09_09h45.14.941,ASRT_percept,2023.2.3,60.12957923944067,2024-08-09 09h45.58.990258 +0800,
,2,180,3,1,red,sequences/sub101_practice_sequence_00.csv,,,,,,,,,,,0,0,0,0,0,46,46,8,,,,,,,,,,,,,,,,,,,,,380.6679012000095,,,,,,,,,,,,,380.6559198999894,380.6679012000095,380.6679012000095,380.86825800000224,381.1908989000076,1,1,0.5136810999829322,None,381.1926346999826,381.213096099993,381.213096099993,381.7030570000061,382.2033320000046,382.18714359999285,382.18722490000073,382.2033320000046,,382.90200080000795,,,,,,,,,,,,,,,,,,,,,,,,,,,,,,,,,,,,,,,,,,,,,,,,,,,,,,,,,,,,,,sub101,percept,4,0,2024-08-09_09h45.14.941,ASRT_percept,2023.2.3,60.12957923944067,2024-08-09 09h45.58.990258 +0800,
,1,90,2,2,red,sequences/sub101_practice_sequence_00.csv,,,,,,,,,,,0,0,0,0,0,47,47,17,,,,,,,,,,,,,,,,,,,,,382.91906439999,,,,,,,,,,,,,382.9036777000001,382.91906439999,382.91906439999,383.11770040000556,383.45492009999,2,1,0.5182167000020854,None,383.4568339000107,383.4772904999845,383.4772904999845,383.9668679999886,384.4667391999974,384.45201569999335,384.4520959999936,384.4667391999974,385.1665332999837,385.1527483999962,,,,,,,,,,,,,,,,,,,,,,,,,,,,,,,,,,,,,,,,,,,,,,,,,,,,,,,,,,,,,,sub101,percept,4,0,2024-08-09_09h45.14.941,ASRT_percept,2023.2.3,60.12957923944067,2024-08-09 09h45.58.990258 +0800,
,3,270,0,4,red,sequences/sub101_practice_sequence_00.csv,,,,,,,,,,,0,0,0,0,0,48,48,44,,,,,,,,,,,,,,,,,,,,,385.1665332999837,,,,,,,,,,,,,385.1542625000002,385.1665332999837,385.1665332999837,385.3668836999859,385.68859249999514,4,1,0.5020469000155572,None,385.69033449998824,385.70510150000337,385.70510150000337,386.199455199996,386.69981240000925,386.6849918999942,386.685072399996,386.69981240000925,387.40124069998274,387.3851757000084,,,,,,,,,,,,,,,,,,,,,,,,,,,,,,,,,,,,,,,,,,,,,,,,,,,,,,,,,,,,,,sub101,percept,4,0,2024-08-09_09h45.14.941,ASRT_percept,2023.2.3,60.12957923944067,2024-08-09 09h45.58.990258 +0800,
,2,180,3,1,red,sequences/sub101_practice_sequence_00.csv,,,,,,,,,,,0,0,0,0,0,49,49,57,,,,,,,,,,,,,,,,,,,,,387.40124069998274,,,,,,,,,,,,,387.3874125999864,387.40124069998274,387.40124069998274,387.61741760000587,387.9040968999907,1,1,0.4904994000098668,None,387.90593549999176,387.921154199983,387.921154199983,388.41863719999674,388.9171439000056,388.900882499991,388.90096850000555,388.9171439000056,,389.6171812999819,,,,,,,,,,,,,,,,,,,,,,,,,,,,,,,,,,,,,,,,,,,,,,,,,,,,,,,,,,,,,,sub101,percept,4,0,2024-08-09_09h45.14.941,ASRT_percept,2023.2.3,60.12957923944067,2024-08-09 09h45.58.990258 +0800,
,0,0,1,3,red,sequences/sub101_practice_sequence_00.csv,,,,,,,,,,,0,0,0,0,0,50,50,40,,,,,,,,,,,,,,,,,,,,,389.6341459999967,,,,,,,,,,,,,389.6188301999937,389.6341459999967,389.6341459999967,389.83203729998786,390.17097710000235,3,1,0.5295023999933619,None,390.1727139999857,390.18820949998917,390.18820949998917,390.68182759999763,391.18148209998617,391.1667696000077,391.1668556999939,391.18148209998617,391.88195059998543,391.866371000011,,,,,,,,,,,,,,,,,,,,,,,,,,,,,,,,,,,,,,,,,,,,,,,,,,,,,,,,,,,,,,sub101,percept,4,0,2024-08-09_09h45.14.941,ASRT_percept,2023.2.3,60.12957923944067,2024-08-09 09h45.58.990258 +0800,
,3,270,0,4,red,sequences/sub101_practice_sequence_00.csv,,,,,,,,,,,0,0,0,0,0,51,51,36,,,,,,,,,,,,,,,,,,,,,391.88195059998543,,,,,,,,,,,,,391.8680672000046,391.88195059998543,391.88195059998543,392.0817253999994,392.3524592999893,4,1,0.4642963999940548,None,392.35420289999456,392.36898369999835,392.36898369999835,392.8642689999833,393.3640579000057,393.34953939999104,393.3496354999952,393.3640579000057,394.06504319998203,394.0492679000017,,,,,,,,,,,,,,,,,,,,,,,,,,,,,,,,,,,,,,,,,,,,,,,,,,,,,,,,,,,,,,sub101,percept,4,0,2024-08-09_09h45.14.941,ASRT_percept,2023.2.3,60.12957923944067,2024-08-09 09h45.58.990258 +0800,
,1,90,2,2,red,sequences/sub101_practice_sequence_00.csv,,,,,,,,,,,0,0,0,0,0,52,52,38,,,,,,,,,,,,,,,,,,,,,394.06504319998203,,,,,,,,,,,,,394.05094379998627,394.06504319998203,394.06504319998203,394.2646167000057,394.6025008999859,2,1,0.5308732000121381,None,394.60440320000635,394.62251660000766,394.62251660000766,395.1143860000011,395.6149127999961,395.5992401999829,395.5993360999855,395.6149127999961,,396.3143051000079,,,,,,,,,,,,,,,,,,,,,,,,,,,,,,,,,,,,,,,,,,,,,,,,,,,,,,,,,,,,,,sub101,percept,4,0,2024-08-09_09h45.14.941,ASRT_percept,2023.2.3,60.12957923944067,2024-08-09 09h45.58.990258 +0800,
,2,180,3,1,red,sequences/sub101_practice_sequence_00.csv,,,,,,,,,,,0,0,0,0,0,53,53,73,,,,,,,,,,,,,,,,,,,,,396.32989140000427,,,,,,,,,,,,,396.31590809999034,396.32989140000427,396.32989140000427,396.52998259998276,396.73442759999307,1,1,0.39793880001525395,None,396.73599549999926,396.74937169998884,396.74937169998884,397.24624780000886,397.74617900000885,397.7315200000012,397.73160679999273,397.74617900000885,398.4458397999988,398.4314136999892,,,,,,,,,,,,,,,,,,,,,,,,,,,,,,,,,,,,,,,,,,,,,,,,,,,,,,,,,,,,,,sub101,percept,4,0,2024-08-09_09h45.14.941,ASRT_percept,2023.2.3,60.12957923944067,2024-08-09 09h45.58.990258 +0800,
,2,180,3,1,red,sequences/sub101_practice_sequence_00.csv,,,,,,,,,,,0,0,0,0,0,54,54,58,,,,,,,,,,,,,,,,,,,,,398.4458397999988,,,,,,,,,,,,,398.43302679999033,398.4458397999988,398.4458397999988,398.6461629999976,398.9180013999867,1,1,0.46672460000263527,None,398.91979109999374,398.9401056999923,398.9401056999923,399.43066230000113,399.9307996999996,399.9146508999984,399.9147310999979,399.9307996999996,,400.63112519998685,,,,,,,,,,,,,,,,,,,,,,,,,,,,,,,,,,,,,,,,,,,,,,,,,,,,,,,,,,,,,,sub101,percept,4,0,2024-08-09_09h45.14.941,ASRT_percept,2023.2.3,60.12957923944067,2024-08-09 09h45.58.990258 +0800,
,1,90,2,2,red,sequences/sub101_practice_sequence_00.csv,,,,,,,,,,,0,0,0,0,0,55,55,64,,,,,,,,,,,,,,,,,,,,,400.6476694000012,,,,,,,,,,,,,400.6328491999884,400.6476694000012,400.6476694000012,400.8453368000046,401.19870529999025,2,1,0.5394851000164635,None,401.2004775000096,401.21478179999394,401.21478179999394,401.7134034000046,402.2128844000108,402.1969274999865,402.197015999991,402.2128844000108,,402.9135263999924,,,,,,,,,,,,,,,,,,,,,,,,,,,,,,,,,,,,,,,,,,,,,,,,,,,,,,,,,,,,,,sub101,percept,4,0,2024-08-09_09h45.14.941,ASRT_percept,2023.2.3,60.12957923944067,2024-08-09 09h45.58.990258 +0800,
,1,90,2,2,red,sequences/sub101_practice_sequence_00.csv,,,,,,,,,,,0,0,0,0,0,56,56,84,,,,,,,,,,,,,,,,,,,,,402.9298237999901,,,,,,,,,,,,,402.9151989000093,402.9298237999901,402.9298237999901,403.12835009998525,403.38250040001003,2,1,0.44684970000525936,None,403.384086999984,403.3993575999921,403.3993575999921,403.89445689998684,404.39453009999124,404.3798653999984,404.37995319999754,404.39453009999124,405.0957270000072,405.0797746999888,,,,,,,,,,,,,,,,,,,,,,,,,,,,,,,,,,,,,,,,,,,,,,,,,,,,,,,,,,,,,,sub101,percept,4,0,2024-08-09_09h45.14.941,ASRT_percept,2023.2.3,60.12957923944067,2024-08-09 09h45.58.990258 +0800,
,1,90,2,2,red,sequences/sub101_practice_sequence_00.csv,,,,,,,,,,,0,0,0,0,0,57,57,26,,,,,,,,,,,,,,,,,,,,,405.0957270000072,,,,,,,,,,,,,405.08135480000055,405.0957270000072,405.0957270000072,405.310519199993,405.5685983999865,2,1,0.46250930000678636,None,405.56987869998557,405.5845873999933,405.5845873999933,406.07718130000285,406.57695260000764,406.5636743000068,406.5637606999953,406.57695260000764,407.2806474000099,407.2623276000086,,,,,,,,,,,,,,,,,,,,,,,,,,,,,,,,,,,,,,,,,,,,,,,,,,,,,,,,,,,,,,sub101,percept,4,0,2024-08-09_09h45.14.941,ASRT_percept,2023.2.3,60.12957923944067,2024-08-09 09h45.58.990258 +0800,
,3,270,0,4,red,sequences/sub101_practice_sequence_00.csv,,,,,,,,,,,0,0,0,0,0,58,58,50,,,,,,,,,,,,,,,,,,,,,407.2806474000099,,,,,,,,,,,,,407.26409300000523,407.2806474000099,407.2806474000099,407.4933926000085,407.7826930999872,4,1,0.4956889000022784,None,407.784333299991,407.7999969999946,407.7999969999946,408.2925824999984,408.79227450001054,408.7787382999959,408.7788065999921,408.79227450001054,409.4947772999876,409.478792000009,,,,,,,,,,,,,,,,,,,,,,,,,,,,,,,,,,,,,,,,,,,,,,,,,,,,,,,,,,,,,,sub101,percept,4,0,2024-08-09_09h45.14.941,ASRT_percept,2023.2.3,60.12957923944067,2024-08-09 09h45.58.990258 +0800,
,3,270,0,4,red,sequences/sub101_practice_sequence_00.csv,,,,,,,,,,,0,0,0,0,0,59,59,63,,,,,,,,,,,,,,,,,,,,,409.4947772999876,,,,,,,,,,,,,409.4804140999913,409.4947772999876,409.4947772999876,409.70922950000386,409.9464022000029,2,0,0.44348260000697337,None,409.94789129999117,409.9654021000024,409.9654021000024,410.45874589998857,410.96249330000137,410.94481980000273,410.9449003000045,410.96249330000137,,411.65885059998254,,,,,,,,,,,,,,,,,,,,,,,,,,,,,,,,,,,,,,,,,,,,,,,,,,,,,,,,,,,,,,sub101,percept,4,0,2024-08-09_09h45.14.941,ASRT_percept,2023.2.3,60.12957923944067,2024-08-09 09h45.58.990258 +0800,
,2,180,3,1,red,sequences/sub101_practice_sequence_00.csv,,,,,,,,,,,0,0,0,0,0,60,60,7,,,,,,,,,,,,,,,,,,,,,411.6754115000076,,,,,,,,,,,,,411.66037709999364,411.6754115000076,411.6754115000076,411.8742970000021,412.2243696000078,1,1,0.5356150000006892,None,412.22471479998785,412.2400137000077,412.2400137000077,412.7398157999851,413.2415800000017,413.22757240000647,413.22772019999684,413.2415800000017,413.94156700000167,413.9272190000047,,,,,,,,,,,,,,,,,,,,,,,,,,,,,,,,,,,,,,,,,,,,,,,,,,,,,,,,,,,,,,sub101,percept,4,0,2024-08-09_09h45.14.941,ASRT_percept,2023.2.3,60.12957923944067,2024-08-09 09h45.58.990258 +0800,
,0,0,1,3,red,sequences/sub101_practice_sequence_00.csv,,,,,,,,,,,0,0,0,0,0,61,61,19,,,,,,,,,,,,,,,,,,,,,413.94156700000167,,,,,,,,,,,,,413.9287029999832,413.94156700000167,413.94156700000167,414.14125310000964,414.5122391000041,3,1,0.5638093000161462,None,414.5131637000013,414.5269137999858,414.5269137999858,415.023947699985,415.5235046999878,415.50951999999234,415.50960329998634,415.5235046999878,416.224759899982,416.2093956999888,,,,,,,,,,,,,,,,,,,,,,,,,,,,,,,,,,,,,,,,,,,,,,,,,,,,,,,,,,,,,,sub101,percept,4,0,2024-08-09_09h45.14.941,ASRT_percept,2023.2.3,60.12957923944067,2024-08-09 09h45.58.990258 +0800,
,3,270,0,4,red,sequences/sub101_practice_sequence_00.csv,,,,,,,,,,,0,0,0,0,0,62,62,71,,,,,,,,,,,,,,,,,,,,,416.224759899982,,,,,,,,,,,,,416.2112664000015,416.224759899982,416.224759899982,416.4408802999824,416.6611411999911,4,1,0.42788740000105463,None,416.66294000000926,416.67997170001036,416.67997170001036,417.1749179000035,417.6746596999874,417.65874349998194,417.6589108000044,417.6746596999874,,418.37480530000175,,,,,,,,,,,,,,,,,,,,,,,,,,,,,,,,,,,,,,,,,,,,,,,,,,,,,,,,,,,,,,sub101,percept,4,0,2024-08-09_09h45.14.941,ASRT_percept,2023.2.3,60.12957923944067,2024-08-09 09h45.58.990258 +0800,
,2,180,3,1,red,sequences/sub101_practice_sequence_00.csv,,,,,,,,,,,0,0,0,0,0,63,63,20,,,,,,,,,,,,,,,,,,,,,418.3891740000108,,,,,,,,,,,,,418.37645599999814,418.3891740000108,418.3891740000108,418.58901749999495,418.96019640000304,1,1,0.5526267999957781,None,418.9615211999917,418.9772302999918,418.9772302999918,419.4742699000053,419.97404519998236,419.9580094999983,419.9580956999853,419.97404519998236,,420.67372500000056,,,,,,,,,,,,,,,,,,,,,,,,,,,,,,,,,,,,,,,,,,,,,,,,,,,,,,,,,,,,,,sub101,percept,4,0,2024-08-09_09h45.14.941,ASRT_percept,2023.2.3,60.12957923944067,2024-08-09 09h45.58.990258 +0800,
,3,270,0,4,red,sequences/sub101_practice_sequence_00.csv,,,,,,,,,,,0,0,0,0,0,64,64,78,,,,,,,,,,,,,,,,,,,,,420.68942199999583,,,,,,,,,,,,,420.67555580000044,420.68942199999583,420.68942199999583,420.8889333999832,421.1598895000061,4,1,0.45694750000257045,None,421.16200109999045,421.17952360000345,421.17952360000345,421.67238899998483,422.17233229998965,422.15725059999386,422.1573348999955,422.17233229998965,,422.87235279998276,,,,,,,,,,,,,,,,,,,,,,,,,,,,,,,,,,,,,,,,,,,,,,,,,,,,,,,,,,,,,,sub101,percept,4,0,2024-08-09_09h45.14.941,ASRT_percept,2023.2.3,60.12957923944067,2024-08-09 09h45.58.990258 +0800,
,0,0,1,3,red,sequences/sub101_practice_sequence_00.csv,,,,,,,,,,,0,0,0,0,0,65,65,74,,,,,,,,,,,,,,,,,,,,,422.88776929999585,,,,,,,,,,,,,422.87460429998464,422.88776929999585,422.88776929999585,423.09124459998566,423.4107168999908,3,1,0.5159572000266053,None,423.412505699991,423.4339585999842,423.4339585999842,423.92141770001035,424.4209389000025,424.40791609999724,424.4079991999897,424.4209389000025,425.1218905999849,425.1062210999953,,,,,,,,,,,,,,,,,,,,,,,,,,,,,,,,,,,,,,,,,,,,,,,,,,,,,,,,,,,,,,sub101,percept,4,0,2024-08-09_09h45.14.941,ASRT_percept,2023.2.3,60.12957923944067,2024-08-09 09h45.58.990258 +0800,
,1,90,2,2,red,sequences/sub101_practice_sequence_00.csv,,,,,,,,,,,0,0,0,0,0,66,66,0,,,,,,,,,,,,,,,,,,,,,425.1218905999849,,,,,,,,,,,,,425.10784730000887,425.1218905999849,425.1218905999849,425.32079050000175,425.75747630000114,2,1,0.6207213000161573,None,425.7589122999925,425.76990029998706,425.76990029998706,426.27071219999925,426.7707567999896,426.75598519999767,426.756069199997,426.7707567999896,427.47262789998786,427.4558897000097,,,,,,,,,,,,,,,,,,,,,,,,,,,,,,,,,,,,,,,,,,,,,,,,,,,,,,,,,,,,,,sub101,percept,4,0,2024-08-09_09h45.14.941,ASRT_percept,2023.2.3,60.12957923944067,2024-08-09 09h45.58.990258 +0800,
,1,90,2,2,red,sequences/sub101_practice_sequence_00.csv,,,,,,,,,,,0,0,0,0,0,67,67,32,,,,,,,,,,,,,,,,,,,,,427.47262789998786,,,,,,,,,,,,,427.4574818999972,427.47262789998786,427.47262789998786,427.6868397000071,428.0086292999913,2,1,0.5276776000100654,None,428.0103953999933,428.02865409999504,428.02865409999504,428.5204165999894,429.02089330001036,429.0053287000046,429.00542359999963,429.02089330001036,,429.72029890000704,,,,,,,,,,,,,,,,,,,,,,,,,,,,,,,,,,,,,,,,,,,,,,,,,,,,,,,,,,,,,,sub101,percept,4,0,2024-08-09_09h45.14.941,ASRT_percept,2023.2.3,60.12957923944067,2024-08-09 09h45.58.990258 +0800,
,2,180,3,1,red,sequences/sub101_practice_sequence_00.csv,,,,,,,,,,,0,0,0,0,0,68,68,3,,,,,,,,,,,,,,,,,,,,,429.73788969998714,,,,,,,,,,,,,429.72197749998304,429.73788969998714,429.73788969998714,429.9529705999885,430.19297629999346,1,1,0.44785050000064075,None,430.19436799999676,430.2090893999848,430.2090893999848,430.70287909999024,431.20240429998375,431.1880880999961,431.1882321999874,431.20240429998375,431.90309539999,431.8877089000016,,,,,,,,,,,,,,,,,,,,,,,,,,,,,,,,,,,,,,,,,,,,,,,,,,,,,,,,,,,,,,sub101,percept,4,0,2024-08-09_09h45.14.941,ASRT_percept,2023.2.3,60.12957923944067,2024-08-09 09h45.58.990258 +0800,
,3,270,0,4,red,sequences/sub101_practice_sequence_00.csv,,,,,,,,,,,0,0,0,0,0,69,69,27,,,,,,,,,,,,,,,,,,,,,431.90309539999,,,,,,,,,,,,,431.8893515999953,431.90309539999,431.90309539999,432.10286199999973,432.30681330000516,4,1,0.3877535999927204,None,432.3081691999978,432.3197771999985,432.3197771999985,432.8188500999822,433.31807149999077,433.301198000001,433.30123959999764,433.31807149999077,,434.0024858999823,,,,,,,,,,,,,,,,,,,,,,,,,,,,,,,,,,,,,,,,,,,,,,,,,,,,,,,,,,,,,,sub101,percept,4,0,2024-08-09_09h45.14.941,ASRT_percept,2023.2.3,60.12957923944067,2024-08-09 09h45.58.990258 +0800,
,1,90,2,2,red,sequences/sub101_practice_sequence_00.csv,,,,,,,,,,,0,0,0,0,0,70,70,2,,,,,,,,,,,,,,,,,,,,,434.0180158999865,,,,,,,,,,,,,434.004170900007,434.0180158999865,434.0180158999865,434.2185488999821,434.43845529999817,2,1,0.41115200001513585,None,434.4401624999882,434.45551209998666,434.45551209998666,434.9533417999919,435.4536581999855,435.4378871000081,435.4379714000097,435.4536581999855,,436.15087899999344,,,,,,,,,,,,,,,,,,,,,,,,,,,,,,,,,,,,,,,,,,,,,,,,,,,,,,,,,,,,,,sub101,percept,4,0,2024-08-09_09h45.14.941,ASRT_percept,2023.2.3,60.12957923944067,2024-08-09 09h45.58.990258 +0800,
