initial_random_seq_files,orientation_index,orientation_degrees,correct_answer_index,correct_answer_direction,arrow_color,practice_seq_files,learning_seq_files,percept_testing_seq_files,init_random_block.thisRepN,init_random_block.thisTrialN,init_random_block.thisN,init_random_block.thisIndex,init_random_trials.thisRepN,init_random_trials.thisTrialN,init_random_trials.thisN,init_random_trials.thisIndex,practice_blocks.thisRepN,practice_blocks.thisTrialN,practice_blocks.thisN,practice_blocks.thisIndex,practice_trials.thisRepN,practice_trials.thisTrialN,practice_trials.thisN,practice_trials.thisIndex,learning_trials.thisRepN,learning_trials.thisTrialN,learning_trials.thisN,learning_trials.thisIndex,learning_loop.thisRepN,learning_loop.thisTrialN,learning_loop.thisN,learning_loop.thisIndex,trials.thisRepN,trials.thisTrialN,trials.thisN,trials.thisIndex,percept_testing_trials.thisRepN,percept_testing_trials.thisTrialN,percept_testing_trials.thisN,percept_testing_trials.thisIndex,percept_testing_loop.thisRepN,percept_testing_loop.thisTrialN,percept_testing_loop.thisN,percept_testing_loop.thisIndex,thisRow.t,notes,welcomescreen.started,spaceship.started,welcometext.started,welcome_end.started,welcomescreen.stopped,welcome_end.keys,welcome_end.rt,welcome_end.duration,pre_section.started,fixation_init.started,pre_section.stopped,trial.started,arrowhead.started,key_resp.started,arrowhead.stopped,trial.stopped,key_resp.keys,key_resp.corr,key_resp.rt,key_resp.duration,fixation_feedback.started,cross.started,feedback_text.started,cross.stopped,feedback_text.stopped,fixation_feedback.stopped,RSI.started,text_2.started,text_2.stopped,RSI.stopped,post_section.started,feedback_post_section.started,key_resp_4.started,post_section.stopped,key_resp_4.keys,key_resp_4.rt,key_resp_4.duration,pratice_instruction.started,spaceship_rotated.started,rotation_instruction.started,key_resp_2.started,pratice_instruction.stopped,key_resp_2.keys,key_resp_2.rt,key_resp_2.duration,fixation_init.stopped,key_resp.stopped,learning_instruction.started,spaceship_rotated01.started,rotation_instruction01.started,key_resp_02.started,learning_instruction.stopped,key_resp_02.keys,key_resp_02.rt,key_resp_02.duration,seqreport_instruction.started,seqreport_instruction_text.started,seqreport_instruction_key.started,seqreport_instruction.stopped,seqreport_instruction_key.keys,seqreport_instruction_key.rt,seqreport_instruction_key.duration,seqreport.started,seq_report_key.started,seqreport.stopped,seq_report_key.keys,seq_report_key.rt,seq_report_key.duration,seqarrow.started,arrow_report.started,seqarrow.stopped,arrow_report.stopped,percept_testing_instruction.started,spaceship4.started,key_resp_5.started,percept_testing_instruction_text.started,percept_testing_instruction.stopped,key_resp_5.keys,key_resp_5.rt,key_resp_5.duration,fixation.started,cross_2.started,cross_2.stopped,fixation.stopped,thankyouscreen.started,text.started,key_resp_6.started,thankyouscreen.stopped,key_resp_6.keys,key_resp_6.rt,key_resp_6.duration,participant,learning_type,seqID,debug,date,expName,psychopyVersion,frameRate,expStart,
,,,,,,,,,,,,,,,,,,,,,,,,,,,,,,,,,,,,,,,,,,,,,,,0.010668699978850782,0.02165820001391694,0.02165820001391694,0.02165820001391694,26.51119439996546,space,26.482277400034945,None,,,,,,,,,,,,,,,,,,,,,,,,,,,,,,,,,,,,,,,,,,,,,,,,,,,,,,,,,,,,,,,,,,,,,,,,,,,,,,,,,,,,sub107,percept,1,0,2024-08-11_14h41.10.919,ASRT_percept,2023.2.3,144.89057868311625,2024-08-11 15h08.17.340512 +0800,
sequences/sub107_initial_random.csv,1,90,1,3,red,,,,0,0,0,0,0,0,0,0,,,,,,,,,,,,,,,,,,,,,,,,,,,,,27.580826000019442,,,,,,,,,,26.55093929998111,26.556078499997966,27.516947500000242,27.571719100000337,27.580826000019442,27.580826000019442,27.780815400008578,28.08360279997578,3,1,0.49810829997295514,None,28.08550039998954,28.09633709996706,28.09633709996706,28.294241999974474,28.502588299976196,28.49670929997228,28.49674849997973,28.502588299976196,29.203971399983857,29.197488599980716,,,,,,,,,,,,,,,,,,,,,,,,,,,,,,,,,,,,,,,,,,,,,,,,,,,,,,,,,,,,,,sub107,percept,1,0,2024-08-11_14h41.10.919,ASRT_percept,2023.2.3,144.89057868311625,2024-08-11 15h08.17.340512 +0800,
sequences/sub107_initial_random.csv,3,270,3,1,red,,,,0,0,0,0,0,1,1,1,,,,,,,,,,,,,,,,,,,,,,,,,,,,,29.203971399983857,,,,,,,,,,,,,29.198014399968088,29.203971399983857,29.203971399983857,29.405638700001873,29.59469130000798,1,1,0.38662240002304316,None,29.595434300019406,29.600666199985426,29.600666199985426,29.808205100009218,30.016813099966384,30.011363399971742,30.011415000015404,30.016813099966384,,30.71176999999443,,,,,,,,,,,,,,,,,,,,,,,,,,,,,,,,,,,,,,,,,,,,,,,,,,,,,,,,,,,,,,sub107,percept,1,0,2024-08-11_14h41.10.919,ASRT_percept,2023.2.3,144.89057868311625,2024-08-11 15h08.17.340512 +0800,
sequences/sub107_initial_random.csv,1,90,1,3,red,,,,0,0,0,0,0,2,2,2,,,,,,,,,,,,,,,,,,,,,,,,,,,,,30.722916099999566,,,,,,,,,,,,,30.712812400015537,30.722916099999566,30.722916099999566,30.926499199995305,31.136923199985176,3,1,0.406587400007993,None,31.13785790000111,31.146257299988065,31.146257299988065,31.34976710000774,31.55804839998018,31.553905799984932,31.55394409998553,31.55804839998018,32.25898440001765,32.25334659998771,,,,,,,,,,,,,,,,,,,,,,,,,,,,,,,,,,,,,,,,,,,,,,,,,,,,,,,,,,,,,,sub107,percept,1,0,2024-08-11_14h41.10.919,ASRT_percept,2023.2.3,144.89057868311625,2024-08-11 15h08.17.340512 +0800,
sequences/sub107_initial_random.csv,1,90,1,3,red,,,,0,0,0,0,0,3,3,3,,,,,,,,,,,,,,,,,,,,,,,,,,,,,32.25898440001765,,,,,,,,,,,,,32.253912599990144,32.25898440001765,32.25898440001765,32.46100509999087,32.643713400000706,3,1,0.38075429998571053,None,32.644520799978636,32.65227279998362,32.65227279998362,32.85694710002281,33.06495889998041,33.059668399975635,33.05971469997894,33.06495889998041,33.76765840000007,33.760751399968285,,,,,,,,,,,,,,,,,,,,,,,,,,,,,,,,,,,,,,,,,,,,,,,,,,,,,,,,,,,,,,sub107,percept,1,0,2024-08-11_14h41.10.919,ASRT_percept,2023.2.3,144.89057868311625,2024-08-11 15h08.17.340512 +0800,
sequences/sub107_initial_random.csv,0,0,0,4,red,,,,0,0,0,0,0,4,4,4,,,,,,,,,,,,,,,,,,,,,,,,,,,,,33.76765840000007,,,,,,,,,,,,,33.76148039998952,33.76765840000007,33.76765840000007,33.967735800019,34.14416730002267,4,1,0.36539180000545457,None,34.1447936000186,34.1511711999774,34.1511711999774,34.34970849996898,34.55769929999951,34.552523599995766,34.55269189999672,34.55769929999951,,35.25318780000089,,,,,,,,,,,,,,,,,,,,,,,,,,,,,,,,,,,,,,,,,,,,,,,,,,,,,,,,,,,,,,sub107,percept,1,0,2024-08-11_14h41.10.919,ASRT_percept,2023.2.3,144.89057868311625,2024-08-11 15h08.17.340512 +0800,
sequences/sub107_initial_random.csv,3,270,3,1,red,,,,0,0,0,0,0,5,5,5,,,,,,,,,,,,,,,,,,,,,,,,,,,,,35.262518299976364,,,,,,,,,,,,,35.25396689999616,35.262518299976364,35.262518299976364,35.4676279000123,35.60960149997845,1,1,0.33914949995232746,None,35.610368599998765,35.618347299983725,35.618347299983725,35.822268899995834,36.02992699999595,36.02374829998007,36.02377889998024,36.02992699999595,,36.72513600002276,,,,,,,,,,,,,,,,,,,,,,,,,,,,,,,,,,,,,,,,,,,,,,,,,,,,,,,,,,,,,,sub107,percept,1,0,2024-08-11_14h41.10.919,ASRT_percept,2023.2.3,144.89057868311625,2024-08-11 15h08.17.340512 +0800,
sequences/sub107_initial_random.csv,0,0,0,4,red,,,,0,0,0,0,0,6,6,6,,,,,,,,,,,,,,,,,,,,,,,,,,,,,36.73415859998204,,,,,,,,,,,,,36.72595390002243,36.73415859998204,36.73415859998204,36.94005629996536,37.10891569999512,4,1,0.366402699961327,None,37.109456999984104,37.11567510000896,37.11567510000896,37.32180219999282,37.53236650000326,37.526229900016915,37.52628910000203,37.53236650000326,,38.23167020000983,,,,,,,,,,,,,,,,,,,,,,,,,,,,,,,,,,,,,,,,,,,,,,,,,,,,,,,,,,,,,,sub107,percept,1,0,2024-08-11_14h41.10.919,ASRT_percept,2023.2.3,144.89057868311625,2024-08-11 15h08.17.340512 +0800,
sequences/sub107_initial_random.csv,2,180,2,2,red,,,,0,0,0,0,0,7,7,7,,,,,,,,,,,,,,,,,,,,,,,,,,,,,38.24050050001824,,,,,,,,,,,,,38.23311999998987,38.24050050001824,38.24050050001824,38.43968050001422,38.790454100002535,2,1,0.5422580000013113,None,38.79105120000895,38.79755479999585,38.79755479999585,39.00216749997344,39.210579700011294,39.205216499976814,39.20526219997555,39.210579700011294,39.91292909998447,39.906296900007874,,,,,,,,,,,,,,,,,,,,,,,,,,,,,,,,,,,,,,,,,,,,,,,,,,,,,,,,,,,,,,sub107,percept,1,0,2024-08-11_14h41.10.919,ASRT_percept,2023.2.3,144.89057868311625,2024-08-11 15h08.17.340512 +0800,
sequences/sub107_initial_random.csv,1,90,1,3,red,,,,0,0,0,0,0,8,8,8,,,,,,,,,,,,,,,,,,,,,,,,,,,,,39.91292909998447,,,,,,,,,,,,,39.90687830001116,39.91292909998447,39.91292909998447,40.113765500020236,40.37230940000154,3,1,0.45309640001505613,None,40.37299359997269,40.37990579998586,40.37990579998586,40.58803159999661,40.79430339997634,40.78805209998973,40.78808949998347,40.79430339997634,,41.488406000018585,,,,,,,,,,,,,,,,,,,,,,,,,,,,,,,,,,,,,,,,,,,,,,,,,,,,,,,,,,,,,,sub107,percept,1,0,2024-08-11_14h41.10.919,ASRT_percept,2023.2.3,144.89057868311625,2024-08-11 15h08.17.340512 +0800,
sequences/sub107_initial_random.csv,0,0,0,4,red,,,,0,0,0,0,0,9,9,9,,,,,,,,,,,,,,,,,,,,,,,,,,,,,41.49507689999882,,,,,,,,,,,,,41.48891569999978,41.49507689999882,41.49507689999882,41.696851500018965,41.97223909996683,4,1,0.46850849996553734,None,41.97325300000375,41.98353590001352,41.98353590001352,42.18282290000934,42.391197599994484,42.384802800021134,42.38483749999432,42.391197599994484,,43.08564180001849,,,,,,,,,,,,,,,,,,,,,,,,,,,,,,,,,,,,,,,,,,,,,,,,,,,,,,,,,,,,,,sub107,percept,1,0,2024-08-11_14h41.10.919,ASRT_percept,2023.2.3,144.89057868311625,2024-08-11 15h08.17.340512 +0800,
sequences/sub107_initial_random.csv,2,180,2,2,red,,,,0,0,0,0,0,10,10,10,,,,,,,,,,,,,,,,,,,,,,,,,,,,,43.09282550000353,,,,,,,,,,,,,43.08622220001416,43.09282550000353,43.09282550000353,43.29401900002267,43.55539009999484,2,1,0.45347720000427216,None,43.55605810001725,43.564630699984264,43.564630699984264,43.76590900000883,43.97404419997474,43.96770540002035,43.96777549997205,43.97404419997474,,44.66904770000838,,,,,,,,,,,,,,,,,,,,,,,,,,,,,,,,,,,,,,,,,,,,,,,,,,,,,,,,,,,,,,sub107,percept,1,0,2024-08-11_14h41.10.919,ASRT_percept,2023.2.3,144.89057868311625,2024-08-11 15h08.17.340512 +0800,
sequences/sub107_initial_random.csv,0,0,0,4,red,,,,0,0,0,0,0,11,11,11,,,,,,,,,,,,,,,,,,,,,,,,,,,,,44.67766899999697,,,,,,,,,,,,,44.669791999971494,44.67766899999697,44.67766899999697,44.87722450000001,45.10736329999054,4,1,0.42268109996803105,None,45.107879300019704,45.112718100019265,45.112718100019265,45.32144009997137,45.52961799997138,45.52422329998808,45.52426919998834,45.52961799997138,,46.224547300022095,,,,,,,,,,,,,,,,,,,,,,,,,,,,,,,,,,,,,,,,,,,,,,,,,,,,,,,,,,,,,,sub107,percept,1,0,2024-08-11_14h41.10.919,ASRT_percept,2023.2.3,144.89057868311625,2024-08-11 15h08.17.340512 +0800,
sequences/sub107_initial_random.csv,1,90,1,3,red,,,,0,0,0,0,0,12,12,12,,,,,,,,,,,,,,,,,,,,,,,,,,,,,46.23331229999894,,,,,,,,,,,,,46.225254599994514,46.23331229999894,46.23331229999894,46.433150199998636,46.83017909998307,3,1,0.5917468999978155,None,46.83082999999169,46.835891900002025,46.835891900002025,47.04336890002014,47.25263499998255,47.247071199992206,47.24712359998375,47.25263499998255,47.95296349999262,47.9476329999743,,,,,,,,,,,,,,,,,,,,,,,,,,,,,,,,,,,,,,,,,,,,,,,,,,,,,,,,,,,,,,sub107,percept,1,0,2024-08-11_14h41.10.919,ASRT_percept,2023.2.3,144.89057868311625,2024-08-11 15h08.17.340512 +0800,
sequences/sub107_initial_random.csv,1,90,1,3,red,,,,0,0,0,0,0,13,13,13,,,,,,,,,,,,,,,,,,,,,,,,,,,,,47.95296349999262,,,,,,,,,,,,,47.9482568000094,47.95296349999262,47.95296349999262,48.15527779998956,48.303367600019556,3,1,0.34268159995554015,None,48.30411670001922,48.31119649996981,48.31119649996981,48.51627839996945,48.72415550000733,48.71913230000064,48.7191945000086,48.72415550000733,49.42646899999818,49.41963249997934,,,,,,,,,,,,,,,,,,,,,,,,,,,,,,,,,,,,,,,,,,,,,,,,,,,,,,,,,,,,,,sub107,percept,1,0,2024-08-11_14h41.10.919,ASRT_percept,2023.2.3,144.89057868311625,2024-08-11 15h08.17.340512 +0800,
sequences/sub107_initial_random.csv,2,180,2,2,red,,,,0,0,0,0,0,14,14,14,,,,,,,,,,,,,,,,,,,,,,,,,,,,,49.42646899999818,,,,,,,,,,,,,49.42029270000057,49.42646899999818,49.42646899999818,49.62711619999027,49.92069140000967,2,1,0.49102859996492043,None,49.9213295999798,49.92719429999124,49.92719429999124,50.13405260001309,50.342304999998305,50.33734739996726,50.33740419999231,50.342304999998305,51.044563699979335,51.03777449997142,,,,,,,,,,,,,,,,,,,,,,,,,,,,,,,,,,,,,,,,,,,,,,,,,,,,,,,,,,,,,,sub107,percept,1,0,2024-08-11_14h41.10.919,ASRT_percept,2023.2.3,144.89057868311625,2024-08-11 15h08.17.340512 +0800,
sequences/sub107_initial_random.csv,0,0,0,4,red,,,,0,0,0,0,0,15,15,15,,,,,,,,,,,,,,,,,,,,,,,,,,,,,51.044563699979335,,,,,,,,,,,,,51.038426199986134,51.044563699979335,51.044563699979335,51.24548819998745,51.477393199980725,4,1,0.4266941999667324,None,51.47807949996786,51.48632769996766,51.48632769996766,51.68936369998846,51.89766070002224,51.892349699977785,51.892394199967384,51.89766070002224,,52.59325079998234,,,,,,,,,,,,,,,,,,,,,,,,,,,,,,,,,,,,,,,,,,,,,,,,,,,,,,,,,,,,,,sub107,percept,1,0,2024-08-11_14h41.10.919,ASRT_percept,2023.2.3,144.89057868311625,2024-08-11 15h08.17.340512 +0800,
sequences/sub107_initial_random.csv,1,90,1,3,red,,,,0,0,0,0,0,16,16,16,,,,,,,,,,,,,,,,,,,,,,,,,,,,,52.602586499997415,,,,,,,,,,,,,52.594680899987,52.602586499997415,52.602586499997415,52.80777919996763,52.93872979999287,3,1,0.33045880001736805,None,52.94008510001004,52.952646400022786,52.952646400022786,53.15474269998958,53.36345279996749,53.358052399998996,53.35810529999435,53.36345279996749,,54.05822730000364,,,,,,,,,,,,,,,,,,,,,,,,,,,,,,,,,,,,,,,,,,,,,,,,,,,,,,,,,,,,,,sub107,percept,1,0,2024-08-11_14h41.10.919,ASRT_percept,2023.2.3,144.89057868311625,2024-08-11 15h08.17.340512 +0800,
sequences/sub107_initial_random.csv,0,0,0,4,red,,,,0,0,0,0,0,17,17,17,,,,,,,,,,,,,,,,,,,,,,,,,,,,,54.06494199996814,,,,,,,,,,,,,54.05921799998032,54.06494199996814,54.06494199996814,54.26615649997257,54.46175580000272,4,1,0.3938488000421785,None,54.46207160002086,54.46964939997997,54.46964939997997,54.67527870001504,54.88444759999402,54.87774490000447,54.87777859997004,54.88444759999402,,55.57819390000077,,,,,,,,,,,,,,,,,,,,,,,,,,,,,,,,,,,,,,,,,,,,,,,,,,,,,,,,,,,,,,sub107,percept,1,0,2024-08-11_14h41.10.919,ASRT_percept,2023.2.3,144.89057868311625,2024-08-11 15h08.17.340512 +0800,
sequences/sub107_initial_random.csv,2,180,2,2,red,,,,0,0,0,0,0,18,18,18,,,,,,,,,,,,,,,,,,,,,,,,,,,,,55.58523430000059,,,,,,,,,,,,,55.57865599996876,55.58523430000059,55.58523430000059,55.78652660001535,56.09688299999107,2,1,0.5067628999822773,None,56.09809859999223,56.10672169999452,56.10672169999452,56.30779589997837,56.515730699989945,56.51017600001069,56.51021099998616,56.515730699989945,,57.21090990002267,,,,,,,,,,,,,,,,,,,,,,,,,,,,,,,,,,,,,,,,,,,,,,,,,,,,,,,,,,,,,,sub107,percept,1,0,2024-08-11_14h41.10.919,ASRT_percept,2023.2.3,144.89057868311625,2024-08-11 15h08.17.340512 +0800,
sequences/sub107_initial_random.csv,1,90,1,3,red,,,,0,0,0,0,0,19,19,19,,,,,,,,,,,,,,,,,,,,,,,,,,,,,57.2203567000106,,,,,,,,,,,,,57.212002100015525,57.2203567000106,57.2203567000106,57.425712700001895,57.85338310000952,3,1,0.6296621999936178,None,57.854120299976785,57.862053300021216,57.862053300021216,58.064672000007704,58.27339529996971,58.26731839997228,58.26736910000909,58.27339529996971,,58.968326599977445,,,,,,,,,,,,,,,,,,,,,,,,,,,,,,,,,,,,,,,,,,,,,,,,,,,,,,,,,,,,,,sub107,percept,1,0,2024-08-11_14h41.10.919,ASRT_percept,2023.2.3,144.89057868311625,2024-08-11 15h08.17.340512 +0800,
sequences/sub107_initial_random.csv,2,180,2,2,red,,,,0,0,0,0,0,20,20,20,,,,,,,,,,,,,,,,,,,,,,,,,,,,,58.97501769999508,,,,,,,,,,,,,58.96922309999354,58.97501769999508,58.97501769999508,59.17574320000131,59.407836199970916,2,1,0.4290890999836847,None,59.408465999993496,59.41627220000373,59.41627220000373,59.62010940001346,59.828028100018855,59.822494000021834,59.822624999971595,59.828028100018855,,60.52310619998025,,,,,,,,,,,,,,,,,,,,,,,,,,,,,,,,,,,,,,,,,,,,,,,,,,,,,,,,,,,,,,sub107,percept,1,0,2024-08-11_14h41.10.919,ASRT_percept,2023.2.3,144.89057868311625,2024-08-11 15h08.17.340512 +0800,
sequences/sub107_initial_random.csv,1,90,1,3,red,,,,0,0,0,0,0,21,21,21,,,,,,,,,,,,,,,,,,,,,,,,,,,,,60.53111169999465,,,,,,,,,,,,,60.523718299984466,60.53111169999465,60.53111169999465,60.729979099996854,60.91876660002163,3,1,0.38404680002713576,None,60.91961199999787,60.92686130001675,60.92686130001675,61.12704220000887,61.3358740999829,61.329036900016945,61.32907420000993,61.3358740999829,,62.03003490000265,,,,,,,,,,,,,,,,,,,,,,,,,,,,,,,,,,,,,,,,,,,,,,,,,,,,,,,,,,,,,,sub107,percept,1,0,2024-08-11_14h41.10.919,ASRT_percept,2023.2.3,144.89057868311625,2024-08-11 15h08.17.340512 +0800,
sequences/sub107_initial_random.csv,3,270,3,1,red,,,,0,0,0,0,0,22,22,22,,,,,,,,,,,,,,,,,,,,,,,,,,,,,62.03659340000013,,,,,,,,,,,,,62.03067970002303,62.03659340000013,62.03659340000013,62.237644399981946,62.393988399999216,1,1,0.3547815000056289,None,62.394616000005044,62.40217159996973,62.40217159996973,62.606123699981254,62.81424470001366,62.80872139998246,62.808771900017746,62.81424470001366,63.51644550001947,63.50979360000929,,,,,,,,,,,,,,,,,,,,,,,,,,,,,,,,,,,,,,,,,,,,,,,,,,,,,,,,,,,,,,sub107,percept,1,0,2024-08-11_14h41.10.919,ASRT_percept,2023.2.3,144.89057868311625,2024-08-11 15h08.17.340512 +0800,
sequences/sub107_initial_random.csv,0,0,0,4,red,,,,0,0,0,0,0,23,23,23,,,,,,,,,,,,,,,,,,,,,,,,,,,,,63.51644550001947,,,,,,,,,,,,,63.510555499990005,63.51644550001947,63.51644550001947,63.71658409998054,63.896284500020556,4,1,0.3692949000396766,None,63.89705779997166,63.90597660001367,63.90597660001367,64.106300799991,64.31461790000321,64.30857609998202,64.30862169998,64.31461790000321,,65.00902070000302,,,,,,,,,,,,,,,,,,,,,,,,,,,,,,,,,,,,,,,,,,,,,,,,,,,,,,,,,,,,,,sub107,percept,1,0,2024-08-11_14h41.10.919,ASRT_percept,2023.2.3,144.89057868311625,2024-08-11 15h08.17.340512 +0800,
sequences/sub107_initial_random.csv,0,0,0,4,red,,,,0,0,0,0,0,24,24,24,,,,,,,,,,,,,,,,,,,,,,,,,,,,,65.01632080000127,,,,,,,,,,,,,65.00990140001522,65.01632080000127,65.01632080000127,65.21696900000097,65.44136709999293,4,1,0.41791690001264215,None,65.44206689996645,65.44734600000083,65.44734600000083,65.65434459998505,65.86309230001643,65.85708250000607,65.85711859998992,65.86309230001643,,66.55719730001874,,,,,,,,,,,,,,,,,,,,,,,,,,,,,,,,,,,,,,,,,,,,,,,,,,,,,,,,,,,,,,sub107,percept,1,0,2024-08-11_14h41.10.919,ASRT_percept,2023.2.3,144.89057868311625,2024-08-11 15h08.17.340512 +0800,
sequences/sub107_initial_random.csv,3,270,3,1,red,,,,0,0,0,0,0,25,25,25,,,,,,,,,,,,,,,,,,,,,,,,,,,,,66.56379220000235,,,,,,,,,,,,,66.55777559999842,66.56379220000235,66.56379220000235,66.7660562999663,66.9290362999891,1,1,0.3565571999642998,None,66.92979199998081,66.93850579997525,66.93850579997525,67.14081969996914,67.34875910001574,67.34336950001307,67.3434152000118,67.34875910001574,,68.04384769999888,,,,,,,,,,,,,,,,,,,,,,,,,,,,,,,,,,,,,,,,,,,,,,,,,,,,,,,,,,,,,,sub107,percept,1,0,2024-08-11_14h41.10.919,ASRT_percept,2023.2.3,144.89057868311625,2024-08-11 15h08.17.340512 +0800,
sequences/sub107_initial_random.csv,1,90,1,3,red,,,,0,0,0,0,0,26,26,26,,,,,,,,,,,,,,,,,,,,,,,,,,,,,68.05202479998115,,,,,,,,,,,,,68.0446346999961,68.05202479998115,68.05202479998115,68.25148450001143,68.39352759998292,3,1,0.3392595999757759,None,68.39430729998276,68.40000909997616,68.40000909997616,68.60590109997429,68.81369749997975,68.80834759998834,68.80839229997946,68.81369749997975,,69.50896449998254,,,,,,,,,,,,,,,,,,,,,,,,,,,,,,,,,,,,,,,,,,,,,,,,,,,,,,,,,,,,,,sub107,percept,1,0,2024-08-11_14h41.10.919,ASRT_percept,2023.2.3,144.89057868311625,2024-08-11 15h08.17.340512 +0800,
sequences/sub107_initial_random.csv,0,0,0,4,red,,,,0,0,0,0,0,27,27,27,,,,,,,,,,,,,,,,,,,,,,,,,,,,,69.51618889998645,,,,,,,,,,,,,69.50966340000741,69.51618889998645,69.51618889998645,69.71698580001248,69.91502429998945,4,1,0.39456419995985925,None,69.91602150001563,69.92329740000423,69.92329740000423,70.12653680000221,70.33460990001913,70.32917979999911,70.3292237999849,70.33460990001913,,71.02958430000581,,,,,,,,,,,,,,,,,,,,,,,,,,,,,,,,,,,,,,,,,,,,,,,,,,,,,,,,,,,,,,sub107,percept,1,0,2024-08-11_14h41.10.919,ASRT_percept,2023.2.3,144.89057868311625,2024-08-11 15h08.17.340512 +0800,
sequences/sub107_initial_random.csv,0,0,0,4,red,,,,0,0,0,0,0,28,28,28,,,,,,,,,,,,,,,,,,,,,,,,,,,,,71.03663450002205,,,,,,,,,,,,,71.03032269998221,71.03663450002205,71.03663450002205,71.23792879999382,71.44215040002018,4,1,0.39959490002365783,None,71.44299289997434,71.4504101999919,71.4504101999919,71.65440679999301,71.86247079999885,71.85697470000014,71.8570232000202,71.86247079999885,,72.55739239999093,,,,,,,,,,,,,,,,,,,,,,,,,,,,,,,,,,,,,,,,,,,,,,,,,,,,,,,,,,,,,,sub107,percept,1,0,2024-08-11_14h41.10.919,ASRT_percept,2023.2.3,144.89057868311625,2024-08-11 15h08.17.340512 +0800,
sequences/sub107_initial_random.csv,0,0,0,4,red,,,,0,0,0,0,0,29,29,29,,,,,,,,,,,,,,,,,,,,,,,,,,,,,72.56488939997507,,,,,,,,,,,,,72.55811039998662,72.56488939997507,72.56488939997507,72.76522699999623,72.94179080001777,4,1,0.3691984000033699,None,72.94261239998741,72.9534867000184,72.9534867000184,73.15439440001501,73.36269089998677,73.3556826999993,73.35570820001885,73.36269089998677,,74.05739989998983,,,,,,,,,,,,,,,,,,,,,,,,,,,,,,,,,,,,,,,,,,,,,,,,,,,,,,,,,,,,,,sub107,percept,1,0,2024-08-11_14h41.10.919,ASRT_percept,2023.2.3,144.89057868311625,2024-08-11 15h08.17.340512 +0800,
sequences/sub107_initial_random.csv,3,270,3,1,red,,,,0,0,0,0,0,30,30,30,,,,,,,,,,,,,,,,,,,,,,,,,,,,,74.06560119998176,,,,,,,,,,,,,74.05815190001158,74.06560119998176,74.06560119998176,74.26538870000513,74.36604049999733,1,1,0.2959061000146903,None,74.36682819999987,74.37359119998291,74.37359119998291,74.57794069999363,74.78640609997092,74.78064730000915,74.78068789996905,74.78640609997092,,75.48080630000914,,,,,,,,,,,,,,,,,,,,,,,,,,,,,,,,,,,,,,,,,,,,,,,,,,,,,,,,,,,,,,sub107,percept,1,0,2024-08-11_14h41.10.919,ASRT_percept,2023.2.3,144.89057868311625,2024-08-11 15h08.17.340512 +0800,
sequences/sub107_initial_random.csv,3,270,3,1,red,,,,0,0,0,0,0,31,31,31,,,,,,,,,,,,,,,,,,,,,,,,,,,,,75.4873426000122,,,,,,,,,,,,,75.48147290002089,75.4873426000122,75.4873426000122,75.68889019999187,75.78999040002236,1,1,0.2975235999911092,None,75.79087299999082,75.79827119997935,75.79827119997935,76.00141660001827,76.21003760001622,76.20373940002173,76.20377239998197,76.21003760001622,,76.904533599969,,,,,,,,,,,,,,,,,,,,,,,,,,,,,,,,,,,,,,,,,,,,,,,,,,,,,,,,,,,,,,sub107,percept,1,0,2024-08-11_14h41.10.919,ASRT_percept,2023.2.3,144.89057868311625,2024-08-11 15h08.17.340512 +0800,
sequences/sub107_initial_random.csv,1,90,1,3,red,,,,0,0,0,0,0,32,32,32,,,,,,,,,,,,,,,,,,,,,,,,,,,,,76.91172550001647,,,,,,,,,,,,,76.90530069998931,76.91172550001647,76.91172550001647,77.11257270001806,77.25276639999356,3,1,0.33397859998513013,None,77.2534138999763,77.26128470001277,77.26128470001277,77.46675299998606,77.67501999996603,77.66957849997561,77.66962960001547,77.67501999996603,,78.37048069998855,,,,,,,,,,,,,,,,,,,,,,,,,,,,,,,,,,,,,,,,,,,,,,,,,,,,,,,,,,,,,,sub107,percept,1,0,2024-08-11_14h41.10.919,ASRT_percept,2023.2.3,144.89057868311625,2024-08-11 15h08.17.340512 +0800,
sequences/sub107_initial_random.csv,3,270,3,1,red,,,,0,0,0,0,0,33,33,33,,,,,,,,,,,,,,,,,,,,,,,,,,,,,78.37830069998745,,,,,,,,,,,,,78.3710608999827,78.37830069998745,78.37830069998745,78.57788729999447,78.73946499999147,1,1,0.3538752000313252,None,78.74016149999807,78.75117709999904,78.75117709999904,78.95287149999058,79.16084450000199,79.15455989999464,79.15459849999752,79.16084450000199,,79.85567879996961,,,,,,,,,,,,,,,,,,,,,,,,,,,,,,,,,,,,,,,,,,,,,,,,,,,,,,,,,,,,,,sub107,percept,1,0,2024-08-11_14h41.10.919,ASRT_percept,2023.2.3,144.89057868311625,2024-08-11 15h08.17.340512 +0800,
sequences/sub107_initial_random.csv,3,270,3,1,red,,,,0,0,0,0,0,34,34,34,,,,,,,,,,,,,,,,,,,,,,,,,,,,,79.86223089997657,,,,,,,,,,,,,79.85631110001123,79.86223089997657,79.86223089997657,80.06416740000714,80.22233169997344,1,1,0.35149380000075325,None,80.22332499996992,80.23055410000961,80.23055410000961,80.43161799997324,80.64009080000687,80.63452660001349,80.63457220001146,80.64009080000687,,81.33555680001155,,,,,,,,,,,,,,,,,,,,,,,,,,,,,,,,,,,,,,,,,,,,,,,,,,,,,,,,,,,,,,sub107,percept,1,0,2024-08-11_14h41.10.919,ASRT_percept,2023.2.3,144.89057868311625,2024-08-11 15h08.17.340512 +0800,
sequences/sub107_initial_random.csv,3,270,3,1,red,,,,0,0,0,0,0,35,35,35,,,,,,,,,,,,,,,,,,,,,,,,,,,,,81.34123089996865,,,,,,,,,,,,,81.33614879997913,81.34123089996865,81.34123089996865,81.54352289997041,81.69734650000464,1,1,0.3521459000185132,None,81.69786259997636,81.70562630001223,81.70562630001223,81.91109649999999,82.11969069996849,82.11367469996912,82.11372620001202,82.11969069996849,,82.81504780001706,,,,,,,,,,,,,,,,,,,,,,,,,,,,,,,,,,,,,,,,,,,,,,,,,,,,,,,,,,,,,,sub107,percept,1,0,2024-08-11_14h41.10.919,ASRT_percept,2023.2.3,144.89057868311625,2024-08-11 15h08.17.340512 +0800,
sequences/sub107_initial_random.csv,2,180,2,2,red,,,,0,0,0,0,0,36,36,36,,,,,,,,,,,,,,,,,,,,,,,,,,,,,82.82038479996845,,,,,,,,,,,,,82.81585680000717,82.82038479996845,82.82038479996845,83.02160859998548,83.31601199996658,2,1,0.490619299991522,None,83.31665489997249,83.32201589999022,83.32201589999022,83.52883799996926,83.73726929997792,83.73219870001776,83.73223939997843,83.73726929997792,84.44044829998165,84.43251909996616,,,,,,,,,,,,,,,,,,,,,,,,,,,,,,,,,,,,,,,,,,,,,,,,,,,,,,,,,,,,,,sub107,percept,1,0,2024-08-11_14h41.10.919,ASRT_percept,2023.2.3,144.89057868311625,2024-08-11 15h08.17.340512 +0800,
sequences/sub107_initial_random.csv,1,90,1,3,red,,,,0,0,0,0,0,37,37,37,,,,,,,,,,,,,,,,,,,,,,,,,,,,,84.44044829998165,,,,,,,,,,,,,84.43319329997757,84.44044829998165,84.44044829998165,84.63992839999264,84.76734979997855,3,1,0.322701400029473,None,84.76815030002035,84.77464199997485,84.77464199997485,84.98060209996765,85.18874399998458,85.18362999998499,85.18368780001765,85.18874399998458,,85.88384510000469,,,,,,,,,,,,,,,,,,,,,,,,,,,,,,,,,,,,,,,,,,,,,,,,,,,,,,,,,,,,,,sub107,percept,1,0,2024-08-11_14h41.10.919,ASRT_percept,2023.2.3,144.89057868311625,2024-08-11 15h08.17.340512 +0800,
sequences/sub107_initial_random.csv,3,270,3,1,red,,,,0,0,0,0,0,38,38,38,,,,,,,,,,,,,,,,,,,,,,,,,,,,,85.89193069998873,,,,,,,,,,,,,85.88448770000832,85.89193069998873,85.89193069998873,86.09205659996951,86.17805360001512,3,0,0.27812139998422936,None,86.17874240002129,86.1963711999706,86.1963711999706,86.39019599999301,86.59874929999933,86.59293019998586,86.59297220001463,86.59874929999933,,87.29347899998538,,,,,,,,,,,,,,,,,,,,,,,,,,,,,,,,,,,,,,,,,,,,,,,,,,,,,,,,,,,,,,sub107,percept,1,0,2024-08-11_14h41.10.919,ASRT_percept,2023.2.3,144.89057868311625,2024-08-11 15h08.17.340512 +0800,
sequences/sub107_initial_random.csv,1,90,1,3,red,,,,0,0,0,0,0,39,39,39,,,,,,,,,,,,,,,,,,,,,,,,,,,,,87.30143409996526,,,,,,,,,,,,,87.2942672999925,87.30143409996526,87.30143409996526,87.50107459997525,87.93565349996788,3,1,0.6255720999906771,None,87.93656200001715,87.94556540000485,87.94556540000485,88.1474391000229,88.35635720001301,88.34969020000426,88.3497319999733,88.35635720001301,,89.04993979999563,,,,,,,,,,,,,,,,,,,,,,,,,,,,,,,,,,,,,,,,,,,,,,,,,,,,,,,,,,,,,,sub107,percept,1,0,2024-08-11_14h41.10.919,ASRT_percept,2023.2.3,144.89057868311625,2024-08-11 15h08.17.340512 +0800,
sequences/sub107_initial_random.csv,3,270,3,1,red,,,,0,0,0,0,0,40,40,40,,,,,,,,,,,,,,,,,,,,,,,,,,,,,89.05721170001198,,,,,,,,,,,,,89.05051679996541,89.05721170001198,89.05721170001198,89.25859939999646,89.39211700001033,1,1,0.3308170000091195,None,89.39282239996828,89.3989613999729,89.3989613999729,89.6071475999779,89.8138049999834,89.80775370000629,89.80778819997795,89.8138049999834,,90.50813939998625,,,,,,,,,,,,,,,,,,,,,,,,,,,,,,,,,,,,,,,,,,,,,,,,,,,,,,,,,,,,,,sub107,percept,1,0,2024-08-11_14h41.10.919,ASRT_percept,2023.2.3,144.89057868311625,2024-08-11 15h08.17.340512 +0800,
sequences/sub107_initial_random.csv,2,180,2,2,red,,,,0,0,0,0,0,41,41,41,,,,,,,,,,,,,,,,,,,,,,,,,,,,,90.51454090001062,,,,,,,,,,,,,90.50860040000407,90.51454090001062,90.51454090001062,90.7165198000148,90.99625319999177,2,1,0.4736921999719925,None,90.99696129997028,91.0030164999771,91.0030164999771,91.20941439998569,91.41828629997326,91.41176089999499,91.4118058999884,91.41828629997326,,92.1131787999766,,,,,,,,,,,,,,,,,,,,,,,,,,,,,,,,,,,,,,,,,,,,,,,,,,,,,,,,,,,,,,sub107,percept,1,0,2024-08-11_14h41.10.919,ASRT_percept,2023.2.3,144.89057868311625,2024-08-11 15h08.17.340512 +0800,
sequences/sub107_initial_random.csv,3,270,3,1,red,,,,0,0,0,0,0,42,42,42,,,,,,,,,,,,,,,,,,,,,,,,,,,,,92.12070400000084,,,,,,,,,,,,,92.11408099997789,92.12070400000084,92.12070400000084,92.32124869996915,92.46979659999488,1,1,0.3432508999831043,None,92.47079449996818,92.47888080001576,92.47888080001576,92.68206999998074,92.88998969999375,92.88426010002149,92.8843051000149,92.88998969999375,,93.58474089996889,,,,,,,,,,,,,,,,,,,,,,,,,,,,,,,,,,,,,,,,,,,,,,,,,,,,,,,,,,,,,,sub107,percept,1,0,2024-08-11_14h41.10.919,ASRT_percept,2023.2.3,144.89057868311625,2024-08-11 15h08.17.340512 +0800,
sequences/sub107_initial_random.csv,0,0,0,4,red,,,,0,0,0,0,0,43,43,43,,,,,,,,,,,,,,,,,,,,,,,,,,,,,93.59147410001606,,,,,,,,,,,,,93.58540669997456,93.59147410001606,93.59147410001606,93.79270449996693,93.97520400001667,4,1,0.3792896999511868,None,93.97578739997698,93.9829867000226,93.9829867000226,94.18849049997516,94.39674860000378,94.39107509999303,94.39111279998906,94.39674860000378,,95.09170340001583,,,,,,,,,,,,,,,,,,,,,,,,,,,,,,,,,,,,,,,,,,,,,,,,,,,,,,,,,,,,,,sub107,percept,1,0,2024-08-11_14h41.10.919,ASRT_percept,2023.2.3,144.89057868311625,2024-08-11 15h08.17.340512 +0800,
sequences/sub107_initial_random.csv,1,90,1,3,red,,,,0,0,0,0,0,44,44,44,,,,,,,,,,,,,,,,,,,,,,,,,,,,,95.09903199999826,,,,,,,,,,,,,95.09241119999206,95.09903199999826,95.09903199999826,95.29988800000865,95.43660070002079,3,1,0.33280829997966066,None,95.43729169998551,95.44356709998101,95.44356709998101,95.6476290000137,95.85592090000864,95.84966529998928,95.84971039998345,95.85592090000864,,96.54999520001002,,,,,,,,,,,,,,,,,,,,,,,,,,,,,,,,,,,,,,,,,,,,,,,,,,,,,,,,,,,,,,sub107,percept,1,0,2024-08-11_14h41.10.919,ASRT_percept,2023.2.3,144.89057868311625,2024-08-11 15h08.17.340512 +0800,
sequences/sub107_initial_random.csv,1,90,1,3,red,,,,0,0,0,0,0,45,45,45,,,,,,,,,,,,,,,,,,,,,,,,,,,,,96.55696670000907,,,,,,,,,,,,,96.55061619996559,96.55696670000907,96.55696670000907,96.75779910001438,96.8923193999799,3,1,0.32919989997753873,None,96.89304320001975,96.90093669999624,96.90093669999624,97.10519999999087,97.31434460001765,97.30837779998546,97.30843480001204,97.31434460001765,98.01521360001061,98.00943570001982,,,,,,,,,,,,,,,,,,,,,,,,,,,,,,,,,,,,,,,,,,,,,,,,,,,,,,,,,,,,,,sub107,percept,1,0,2024-08-11_14h41.10.919,ASRT_percept,2023.2.3,144.89057868311625,2024-08-11 15h08.17.340512 +0800,
sequences/sub107_initial_random.csv,2,180,2,2,red,,,,0,0,0,0,0,46,46,46,,,,,,,,,,,,,,,,,,,,,,,,,,,,,98.01521360001061,,,,,,,,,,,,,98.01014729996677,98.01521360001061,98.01521360001061,98.2164374999702,98.53847289999248,2,1,0.5180724000092596,None,98.53924529999495,98.54610330000287,98.54610330000287,98.7509779999964,98.95924150000792,98.95368709997274,98.95372920000227,98.95924150000792,,99.65410899999551,,,,,,,,,,,,,,,,,,,,,,,,,,,,,,,,,,,,,,,,,,,,,,,,,,,,,,,,,,,,,,sub107,percept,1,0,2024-08-11_14h41.10.919,ASRT_percept,2023.2.3,144.89057868311625,2024-08-11 15h08.17.340512 +0800,
sequences/sub107_initial_random.csv,0,0,0,4,red,,,,0,0,0,0,0,47,47,47,,,,,,,,,,,,,,,,,,,,,,,,,,,,,99.66057269996963,,,,,,,,,,,,,99.6548339999863,99.66057269996963,99.66057269996963,99.86217490001582,100.03901209996548,4,1,0.3751230000052601,None,100.04008880001493,100.05038510001032,100.05038510001032,100.25074879999738,100.45878970000194,100.45360130001791,100.45364770002197,100.45878970000194,,101.15407390001928,,,,,,,,,,,,,,,,,,,,,,,,,,,,,,,,,,,,,,,,,,,,,,,,,,,,,,,,,,,,,,sub107,percept,1,0,2024-08-11_14h41.10.919,ASRT_percept,2023.2.3,144.89057868311625,2024-08-11 15h08.17.340512 +0800,
sequences/sub107_initial_random.csv,3,270,3,1,red,,,,0,0,0,0,0,48,48,48,,,,,,,,,,,,,,,,,,,,,,,,,,,,,101.16103959997417,,,,,,,,,,,,,101.15491189999739,101.16103959997417,101.16103959997417,101.36206249997485,101.5105161999818,1,1,0.3459120000479743,None,101.51114399998914,101.51723200001288,101.51723200001288,101.72313830000348,101.93132019997574,101.92623159999494,101.92630089999875,101.93132019997574,102.63244050001958,102.62670839997008,,,,,,,,,,,,,,,,,,,,,,,,,,,,,,,,,,,,,,,,,,,,,,,,,,,,,,,,,,,,,,sub107,percept,1,0,2024-08-11_14h41.10.919,ASRT_percept,2023.2.3,144.89057868311625,2024-08-11 15h08.17.340512 +0800,
sequences/sub107_initial_random.csv,3,270,3,1,red,,,,0,0,0,0,0,49,49,49,,,,,,,,,,,,,,,,,,,,,,,,,,,,,102.63244050001958,,,,,,,,,,,,,102.62732269999105,102.63244050001958,102.63244050001958,102.83473279996542,103.01601690001553,1,1,0.3763479000190273,None,103.01657450001221,103.02201020001667,103.02201020001667,103.23024309996981,103.43806409998797,103.43239979998907,103.43244539998705,103.43806409998797,,104.13315359997796,,,,,,,,,,,,,,,,,,,,,,,,,,,,,,,,,,,,,,,,,,,,,,,,,,,,,,,,,,,,,,sub107,percept,1,0,2024-08-11_14h41.10.919,ASRT_percept,2023.2.3,144.89057868311625,2024-08-11 15h08.17.340512 +0800,
sequences/sub107_initial_random.csv,3,270,3,1,red,,,,0,0,0,0,0,50,50,50,,,,,,,,,,,,,,,,,,,,,,,,,,,,,104.13955670001451,,,,,,,,,,,,,104.13371979998192,104.13955670001451,104.13955670001451,104.34162469999865,104.51037079998059,1,1,0.365351099986583,None,104.51142759999493,104.51893660001224,104.51893660001224,104.72292959998595,104.93406629998935,104.92629460000899,104.9263519999804,104.93406629998935,,105.63250760000665,,,,,,,,,,,,,,,,,,,,,,,,,,,,,,,,,,,,,,,,,,,,,,,,,,,,,,,,,,,,,,sub107,percept,1,0,2024-08-11_14h41.10.919,ASRT_percept,2023.2.3,144.89057868311625,2024-08-11 15h08.17.340512 +0800,
sequences/sub107_initial_random.csv,1,90,1,3,red,,,,0,0,0,0,0,51,51,51,,,,,,,,,,,,,,,,,,,,,,,,,,,,,105.64059979998274,,,,,,,,,,,,,105.63345829996979,105.64059979998274,105.64059979998274,105.84129020001274,105.99555099999998,3,1,0.35005519998958334,None,105.99616410001181,106.00312269997085,106.00312269997085,106.20986800000537,106.41709539998556,106.41145359998336,106.41149550001137,106.41709539998556,,107.11212379997596,,,,,,,,,,,,,,,,,,,,,,,,,,,,,,,,,,,,,,,,,,,,,,,,,,,,,,,,,,,,,,sub107,percept,1,0,2024-08-11_14h41.10.919,ASRT_percept,2023.2.3,144.89057868311625,2024-08-11 15h08.17.340512 +0800,
sequences/sub107_initial_random.csv,0,0,0,4,red,,,,0,0,0,0,0,52,52,52,,,,,,,,,,,,,,,,,,,,,,,,,,,,,107.11907349998364,,,,,,,,,,,,,107.11275709996698,107.11907349998364,107.11907349998364,107.32270949997474,107.4617569000111,4,1,0.3403147999779321,None,107.46250989998225,107.46802359999856,107.46802359999856,107.67469680000795,107.88268089998746,107.87747269996908,107.87751849996857,107.88268089998746,108.58366499998374,108.57807829999365,,,,,,,,,,,,,,,,,,,,,,,,,,,,,,,,,,,,,,,,,,,,,,,,,,,,,,,,,,,,,,sub107,percept,1,0,2024-08-11_14h41.10.919,ASRT_percept,2023.2.3,144.89057868311625,2024-08-11 15h08.17.340512 +0800,
sequences/sub107_initial_random.csv,1,90,1,3,red,,,,0,0,0,0,0,53,53,53,,,,,,,,,,,,,,,,,,,,,,,,,,,,,108.58366499998374,,,,,,,,,,,,,108.57864309998695,108.58366499998374,108.58366499998374,108.78545700001996,108.87225269997725,3,1,0.2855295000481419,None,108.87297929998022,108.88262769998983,108.88262769998983,109.08413510001265,109.29268369998317,109.28726379998261,109.28731889999472,109.29268369998317,109.9933390999795,109.98773140000412,,,,,,,,,,,,,,,,,,,,,,,,,,,,,,,,,,,,,,,,,,,,,,,,,,,,,,,,,,,,,,sub107,percept,1,0,2024-08-11_14h41.10.919,ASRT_percept,2023.2.3,144.89057868311625,2024-08-11 15h08.17.340512 +0800,
sequences/sub107_initial_random.csv,0,0,0,4,red,,,,0,0,0,0,0,54,54,54,,,,,,,,,,,,,,,,,,,,,,,,,,,,,109.9933390999795,,,,,,,,,,,,,109.9882753000129,109.9933390999795,109.9933390999795,110.19497929996578,110.35007340001175,4,1,0.35217039997223765,None,110.35077790002106,110.35789929999737,110.35789929999737,110.56328080000822,110.7714646999957,110.7654086999828,110.76544849999482,110.7714646999957,,111.46588420000626,,,,,,,,,,,,,,,,,,,,,,,,,,,,,,,,,,,,,,,,,,,,,,,,,,,,,,,,,,,,,,sub107,percept,1,0,2024-08-11_14h41.10.919,ASRT_percept,2023.2.3,144.89057868311625,2024-08-11 15h08.17.340512 +0800,
sequences/sub107_initial_random.csv,3,270,3,1,red,,,,0,0,0,0,0,55,55,55,,,,,,,,,,,,,,,,,,,,,,,,,,,,,111.47250759997405,,,,,,,,,,,,,111.4665203000186,111.47250759997405,111.47250759997405,111.67414600000484,111.75499919999857,1,1,0.2789127000141889,None,111.75569010002073,111.76412639999762,111.76412639999762,111.9665854999912,112.1745936999796,112.16842760000145,112.16846710001118,112.1745936999796,,112.87001439998858,,,,,,,,,,,,,,,,,,,,,,,,,,,,,,,,,,,,,,,,,,,,,,,,,,,,,,,,,,,,,,sub107,percept,1,0,2024-08-11_14h41.10.919,ASRT_percept,2023.2.3,144.89057868311625,2024-08-11 15h08.17.340512 +0800,
sequences/sub107_initial_random.csv,2,180,2,2,red,,,,0,0,0,0,0,56,56,56,,,,,,,,,,,,,,,,,,,,,,,,,,,,,112.8787209999864,,,,,,,,,,,,,112.87086779996753,112.8787209999864,112.8787209999864,113.0839615999721,113.38535250001587,2,1,0.5017015000339597,None,113.38600820000283,113.39223429997219,113.39223429997219,113.59817269997438,113.80640359997051,113.80053369997768,113.80058450001525,113.80640359997051,114.50700839998899,114.50143599999137,,,,,,,,,,,,,,,,,,,,,,,,,,,,,,,,,,,,,,,,,,,,,,,,,,,,,,,,,,,,,,sub107,percept,1,0,2024-08-11_14h41.10.919,ASRT_percept,2023.2.3,144.89057868311625,2024-08-11 15h08.17.340512 +0800,
sequences/sub107_initial_random.csv,0,0,0,4,red,,,,0,0,0,0,0,57,57,57,,,,,,,,,,,,,,,,,,,,,,,,,,,,,114.50700839998899,,,,,,,,,,,,,114.50199650001014,114.50700839998899,114.50700839998899,114.70882379997056,114.90558799996506,4,1,0.39320929994573817,None,114.90649750002194,114.91228129999945,114.91228129999945,115.1187501999666,115.32704439997906,115.32141600002069,115.32147109997459,115.32704439997906,,116.02210619999096,,,,,,,,,,,,,,,,,,,,,,,,,,,,,,,,,,,,,,,,,,,,,,,,,,,,,,,,,,,,,,sub107,percept,1,0,2024-08-11_14h41.10.919,ASRT_percept,2023.2.3,144.89057868311625,2024-08-11 15h08.17.340512 +0800,
sequences/sub107_initial_random.csv,2,180,2,2,red,,,,0,0,0,0,0,58,58,58,,,,,,,,,,,,,,,,,,,,,,,,,,,,,116.02895910001826,,,,,,,,,,,,,116.02275880001253,116.02895910001826,116.02895910001826,116.22987939999439,116.35015439998824,1,0,0.3150235000066459,None,116.35094480001135,116.36478659999557,116.36478659999557,116.5632824000204,116.77097369998228,116.76638929999899,116.76643499999773,116.77097369998228,117.47247749997769,117.46656829997664,,,,,,,,,,,,,,,,,,,,,,,,,,,,,,,,,,,,,,,,,,,,,,,,,,,,,,,,,,,,,,sub107,percept,1,0,2024-08-11_14h41.10.919,ASRT_percept,2023.2.3,144.89057868311625,2024-08-11 15h08.17.340512 +0800,
sequences/sub107_initial_random.csv,1,90,1,3,red,,,,0,0,0,0,0,59,59,59,,,,,,,,,,,,,,,,,,,,,,,,,,,,,117.47247749997769,,,,,,,,,,,,,117.467089999991,117.47247749997769,117.47247749997769,117.67416220001178,117.88640289998148,3,1,0.4109457000158727,None,117.88727020000806,117.89490439998917,117.89490439998917,118.09785740001826,118.30590629996732,118.30006390000926,118.30009779997636,118.30590629996732,,119.00113599997712,,,,,,,,,,,,,,,,,,,,,,,,,,,,,,,,,,,,,,,,,,,,,,,,,,,,,,,,,,,,,,sub107,percept,1,0,2024-08-11_14h41.10.919,ASRT_percept,2023.2.3,144.89057868311625,2024-08-11 15h08.17.340512 +0800,
sequences/sub107_initial_random.csv,2,180,2,2,red,,,,0,0,0,0,0,60,60,60,,,,,,,,,,,,,,,,,,,,,,,,,,,,,119.00799090001965,,,,,,,,,,,,,119.00180959998397,119.00799090001965,119.00799090001965,119.20901960000629,119.47467700002016,2,1,0.4615217000246048,None,119.47537359996932,119.48176070000045,119.48176070000045,119.68799609999405,119.89632559998427,119.89023389999056,119.89026870002272,119.89632559998427,,120.59101739997277,,,,,,,,,,,,,,,,,,,,,,,,,,,,,,,,,,,,,,,,,,,,,,,,,,,,,,,,,,,,,,sub107,percept,1,0,2024-08-11_14h41.10.919,ASRT_percept,2023.2.3,144.89057868311625,2024-08-11 15h08.17.340512 +0800,
sequences/sub107_initial_random.csv,1,90,1,3,red,,,,0,0,0,0,0,61,61,61,,,,,,,,,,,,,,,,,,,,,,,,,,,,,120.59809819998918,,,,,,,,,,,,,120.59160559996963,120.59809819998918,120.59809819998918,120.79908119997708,120.94004919996951,3,1,0.3372381000081077,None,120.94073659996502,120.94750429998385,120.94750429998385,121.15330689999973,121.3615733999759,121.3559791999869,121.35609000001568,121.3615733999759,122.06256920000305,122.05658460000996,,,,,,,,,,,,,,,,,,,,,,,,,,,,,,,,,,,,,,,,,,,,,,,,,,,,,,,,,,,,,,sub107,percept,1,0,2024-08-11_14h41.10.919,ASRT_percept,2023.2.3,144.89057868311625,2024-08-11 15h08.17.340512 +0800,
sequences/sub107_initial_random.csv,3,270,3,1,red,,,,0,0,0,0,0,62,62,62,,,,,,,,,,,,,,,,,,,,,,,,,,,,,122.06256920000305,,,,,,,,,,,,,122.05706500000088,122.06256920000305,122.06256920000305,122.26461860002019,122.39255049999338,1,1,0.3261482000234537,None,122.39323589997366,122.40013389999513,122.40013389999513,122.6052151999902,122.81281709996983,122.80686309997691,122.8069013999775,122.81281709996983,,123.50790319999214,,,,,,,,,,,,,,,,,,,,,,,,,,,,,,,,,,,,,,,,,,,,,,,,,,,,,,,,,,,,,,sub107,percept,1,0,2024-08-11_14h41.10.919,ASRT_percept,2023.2.3,144.89057868311625,2024-08-11 15h08.17.340512 +0800,
sequences/sub107_initial_random.csv,1,90,1,3,red,,,,0,0,0,0,0,63,63,63,,,,,,,,,,,,,,,,,,,,,,,,,,,,,123.51400239998475,,,,,,,,,,,,,123.5085183000192,123.51400239998475,123.51400239998475,123.71614839998074,123.83577820000937,3,1,0.31696670001838356,None,123.83646560000489,123.84544210002059,123.84544210002059,124.04918390000239,124.25754299998516,124.2524711000151,124.25253220001468,124.25754299998516,124.960299999977,124.95283520000521,,,,,,,,,,,,,,,,,,,,,,,,,,,,,,,,,,,,,,,,,,,,,,,,,,,,,,,,,,,,,,sub107,percept,1,0,2024-08-11_14h41.10.919,ASRT_percept,2023.2.3,144.89057868311625,2024-08-11 15h08.17.340512 +0800,
sequences/sub107_initial_random.csv,2,180,2,2,red,,,,0,0,0,0,0,64,64,64,,,,,,,,,,,,,,,,,,,,,,,,,,,,,124.960299999977,,,,,,,,,,,,,124.95349230000284,124.960299999977,124.960299999977,125.15994909999426,125.43974020000314,2,1,0.47355930000776425,None,125.4403715999797,125.44725229998585,125.44725229998585,125.65487709996523,125.86156519997166,125.8557636999758,125.85580959997606,125.86156519997166,,126.55615979997674,,,,,,,,,,,,,,,,,,,,,,,,,,,,,,,,,,,,,,,,,,,,,,,,,,,,,,,,,,,,,,sub107,percept,1,0,2024-08-11_14h41.10.919,ASRT_percept,2023.2.3,144.89057868311625,2024-08-11 15h08.17.340512 +0800,
sequences/sub107_initial_random.csv,1,90,1,3,red,,,,0,0,0,0,0,65,65,65,,,,,,,,,,,,,,,,,,,,,,,,,,,,,126.56258550001075,,,,,,,,,,,,,126.55678889999399,126.56258550001075,126.56258550001075,126.76413229998434,126.92695980001008,3,1,0.361436799983494,None,126.92768630001228,126.93764189997455,126.93764189997455,127.13923189998604,127.34746229997836,127.34128829999827,127.34132669999963,127.34746229997836,,128.04249169997638,,,,,,,,,,,,,,,,,,,,,,,,,,,,,,,,,,,,,,,,,,,,,,,,,,,,,,,,,,,,,,sub107,percept,1,0,2024-08-11_14h41.10.919,ASRT_percept,2023.2.3,144.89057868311625,2024-08-11 15h08.17.340512 +0800,
sequences/sub107_initial_random.csv,3,270,3,1,red,,,,0,0,0,0,0,66,66,66,,,,,,,,,,,,,,,,,,,,,,,,,,,,,128.04979889997048,,,,,,,,,,,,,128.0432970999973,128.04979889997048,128.04979889997048,128.250928799971,128.3778855999699,1,1,0.321041899966076,None,128.37874080002075,128.3867934999871,128.3867934999871,128.59339669998735,128.7989662999753,128.79512460000115,128.7951593999751,128.7989662999753,129.50326989998575,129.49533950001933,,,,,,,,,,,,,,,,,,,,,,,,,,,,,,,,,,,,,,,,,,,,,,,,,,,,,,,,,,,,,,sub107,percept,1,0,2024-08-11_14h41.10.919,ASRT_percept,2023.2.3,144.89057868311625,2024-08-11 15h08.17.340512 +0800,
sequences/sub107_initial_random.csv,0,0,0,4,red,,,,0,0,0,0,0,67,67,67,,,,,,,,,,,,,,,,,,,,,,,,,,,,,129.50326989998575,,,,,,,,,,,,,129.49627080000937,129.50326989998575,129.50326989998575,129.70472919999156,129.91910160001134,4,1,0.41062779998173937,None,129.91985810000915,129.92748690000735,129.92748690000735,130.13244750001468,130.3406431999756,130.33453370002098,130.33457900001667,130.3406431999756,,131.03492190001998,,,,,,,,,,,,,,,,,,,,,,,,,,,,,,,,,,,,,,,,,,,,,,,,,,,,,,,,,,,,,,sub107,percept,1,0,2024-08-11_14h41.10.919,ASRT_percept,2023.2.3,144.89057868311625,2024-08-11 15h08.17.340512 +0800,
sequences/sub107_initial_random.csv,0,0,0,4,red,,,,0,0,0,0,0,68,68,68,,,,,,,,,,,,,,,,,,,,,,,,,,,,,131.0422269999981,,,,,,,,,,,,,131.03560299996752,131.0422269999981,131.0422269999981,131.24330480000935,131.3991605999763,4,1,0.35228400002233684,None,131.3998865999747,131.40735130000394,131.40735130000394,131.61123560002306,131.82012819999363,131.81611409998732,131.81614790001186,131.82012819999363,132.52421359997243,132.51538290001918,,,,,,,,,,,,,,,,,,,,,,,,,,,,,,,,,,,,,,,,,,,,,,,,,,,,,,,,,,,,,,sub107,percept,1,0,2024-08-11_14h41.10.919,ASRT_percept,2023.2.3,144.89057868311625,2024-08-11 15h08.17.340512 +0800,
sequences/sub107_initial_random.csv,3,270,3,1,red,,,,0,0,0,0,0,69,69,69,,,,,,,,,,,,,,,,,,,,,,,,,,,,,132.52421359997243,,,,,,,,,,,,,132.51608309999574,132.52421359997243,132.52421359997243,132.7293264999753,132.91176739998627,1,1,0.3824113999726251,None,132.912341999996,132.91733959998237,132.91733959998237,133.12544049997814,133.3338211000082,133.32795309997164,133.32799449999584,133.3338211000082,134.03440870001214,134.02844069997082,,,,,,,,,,,,,,,,,,,,,,,,,,,,,,,,,,,,,,,,,,,,,,,,,,,,,,,,,,,,,,sub107,percept,1,0,2024-08-11_14h41.10.919,ASRT_percept,2023.2.3,144.89057868311625,2024-08-11 15h08.17.340512 +0800,
sequences/sub107_initial_random.csv,1,90,1,3,red,,,,0,0,0,0,0,70,70,70,,,,,,,,,,,,,,,,,,,,,,,,,,,,,134.03440870001214,,,,,,,,,,,,,134.02881920000073,134.03440870001214,134.03440870001214,134.23635570000624,134.39084890001686,3,1,0.35193340003024787,None,134.39151489996584,134.39658990001772,134.39658990001772,134.6044851000188,134.81253900000593,134.8067815999966,134.80681999999797,134.81253900000593,,135.50728919997346,,,,,,,,,,,,,,,,,,,,,,,,,,,,,,,,,,,,,,,,,,,,,,,,,,,,,,,,,,,,,,sub107,percept,1,0,2024-08-11_14h41.10.919,ASRT_percept,2023.2.3,144.89057868311625,2024-08-11 15h08.17.340512 +0800,
sequences/sub107_initial_random.csv,0,0,0,4,red,,,,0,0,0,0,0,71,71,71,,,,,,,,,,,,,,,,,,,,,,,,,,,,,135.51370459998725,,,,,,,,,,,,,135.50790470000356,135.51370459998725,135.51370459998725,135.71548399998574,135.85822280001594,4,1,0.34085509995929897,None,135.85882640001364,135.8658340999973,135.8658340999973,136.06963809998706,136.27774439996574,136.27139609999722,136.27142190001905,136.27774439996574,,136.97259269998176,,,,,,,,,,,,,,,,,,,,,,,,,,,,,,,,,,,,,,,,,,,,,,,,,,,,,,,,,,,,,,sub107,percept,1,0,2024-08-11_14h41.10.919,ASRT_percept,2023.2.3,144.89057868311625,2024-08-11 15h08.17.340512 +0800,
sequences/sub107_initial_random.csv,3,270,3,1,red,,,,0,0,0,0,0,72,72,72,,,,,,,,,,,,,,,,,,,,,,,,,,,,,136.97892550000688,,,,,,,,,,,,,136.9728662999696,136.97892550000688,136.97892550000688,137.18073859997094,137.3641031999723,1,1,0.3798791999579407,None,137.36476590001257,137.37343179999152,137.37343179999152,137.57656840002164,137.78490729996702,137.77790190000087,137.77792620001128,137.78490729996702,,138.4800019999966,,,,,,,,,,,,,,,,,,,,,,,,,,,,,,,,,,,,,,,,,,,,,,,,,,,,,,,,,,,,,,sub107,percept,1,0,2024-08-11_14h41.10.919,ASRT_percept,2023.2.3,144.89057868311625,2024-08-11 15h08.17.340512 +0800,
sequences/sub107_initial_random.csv,1,90,1,3,red,,,,0,0,0,0,0,73,73,73,,,,,,,,,,,,,,,,,,,,,,,,,,,,,138.4889877999667,,,,,,,,,,,,,138.4819443000015,138.4889877999667,138.4889877999667,138.6873832999845,138.7726550999796,3,1,0.27816190000157803,None,138.77415140002267,138.78162550000707,138.78162550000707,138.98565149999922,139.1937300999998,139.1912334000226,139.19125689996872,139.1937300999998,,139.89298649999546,,,,,,,,,,,,,,,,,,,,,,,,,,,,,,,,,,,,,,,,,,,,,,,,,,,,,,,,,,,,,,sub107,percept,1,0,2024-08-11_14h41.10.919,ASRT_percept,2023.2.3,144.89057868311625,2024-08-11 15h08.17.340512 +0800,
sequences/sub107_initial_random.csv,1,90,1,3,red,,,,0,0,0,0,0,74,74,74,,,,,,,,,,,,,,,,,,,,,,,,,,,,,139.90196980000474,,,,,,,,,,,,,139.89431970001897,139.90196980000474,139.90196980000474,140.10418329999084,140.24327139998786,3,1,0.33390610001515597,None,140.2446185000008,140.25426840002183,140.25426840002183,140.45807529997546,140.66627250000602,140.66166029998567,140.66168989997823,140.66627250000602,141.3676462000003,141.3616887999815,,,,,,,,,,,,,,,,,,,,,,,,,,,,,,,,,,,,,,,,,,,,,,,,,,,,,,,,,,,,,,sub107,percept,1,0,2024-08-11_14h41.10.919,ASRT_percept,2023.2.3,144.89057868311625,2024-08-11 15h08.17.340512 +0800,
sequences/sub107_initial_random.csv,2,180,2,2,red,,,,0,0,0,0,0,75,75,75,,,,,,,,,,,,,,,,,,,,,,,,,,,,,141.3676462000003,,,,,,,,,,,,,141.36214919999475,141.3676462000003,141.3676462000003,141.56931960000657,141.86472850001883,2,1,0.49454939999850467,None,141.86530509998556,141.87093109998386,141.87093109998386,142.07628689997364,142.28465889999643,142.2787467999733,142.2787810000009,142.28465889999643,,142.97926900000311,,,,,,,,,,,,,,,,,,,,,,,,,,,,,,,,,,,,,,,,,,,,,,,,,,,,,,,,,,,,,,sub107,percept,1,0,2024-08-11_14h41.10.919,ASRT_percept,2023.2.3,144.89057868311625,2024-08-11 15h08.17.340512 +0800,
sequences/sub107_initial_random.csv,2,180,2,2,red,,,,0,0,0,0,0,76,76,76,,,,,,,,,,,,,,,,,,,,,,,,,,,,,142.98579160001827,,,,,,,,,,,,,142.97974480001722,142.98579160001827,142.98579160001827,143.18767169996863,143.37789549998706,2,1,0.38908039999660105,None,143.37860569998156,143.38454870000714,143.38454870000714,143.58993189997273,143.7987853999948,143.79364260000875,143.79369020002196,143.7987853999948,144.49955780000892,144.4941626000218,,,,,,,,,,,,,,,,,,,,,,,,,,,,,,,,,,,,,,,,,,,,,,,,,,,,,,,,,,,,,,sub107,percept,1,0,2024-08-11_14h41.10.919,ASRT_percept,2023.2.3,144.89057868311625,2024-08-11 15h08.17.340512 +0800,
sequences/sub107_initial_random.csv,1,90,1,3,red,,,,0,0,0,0,0,77,77,77,,,,,,,,,,,,,,,,,,,,,,,,,,,,,144.49955780000892,,,,,,,,,,,,,144.49463809997542,144.49955780000892,144.49955780000892,144.70128350000596,144.86354400002165,3,1,0.35635509999701753,None,144.86422569997376,144.87076560000423,144.87076560000423,145.0761348999804,145.28437060001306,145.27871559996856,145.27875619998667,145.28437060001306,,145.97913539997535,,,,,,,,,,,,,,,,,,,,,,,,,,,,,,,,,,,,,,,,,,,,,,,,,,,,,,,,,,,,,,sub107,percept,1,0,2024-08-11_14h41.10.919,ASRT_percept,2023.2.3,144.89057868311625,2024-08-11 15h08.17.340512 +0800,
sequences/sub107_initial_random.csv,0,0,0,4,red,,,,0,0,0,0,0,78,78,78,,,,,,,,,,,,,,,,,,,,,,,,,,,,,145.98713730002055,,,,,,,,,,,,,145.97978639998473,145.98713730002055,145.98713730002055,146.18702259997372,146.46789969998645,4,1,0.47682879999047145,None,146.46856589999516,146.4752800000133,146.4752800000133,146.68040939996717,146.88898059999337,146.88309600000503,146.88313749997178,146.88898059999337,147.5910325999721,147.5838612000225,,,,,,,,,,,,,,,,,,,,,,,,,,,,,,,,,,,,,,,,,,,,,,,,,,,,,,,,,,,,,,sub107,percept,1,0,2024-08-11_14h41.10.919,ASRT_percept,2023.2.3,144.89057868311625,2024-08-11 15h08.17.340512 +0800,
sequences/sub107_initial_random.csv,0,0,0,4,red,,,,0,0,0,0,0,79,79,79,,,,,,,,,,,,,,,,,,,,,,,,,,,,,147.5910325999721,,,,,,,,,,,,,147.584442100022,147.5910325999721,147.5910325999721,147.791212000011,147.9884022999904,4,1,0.39386670000385493,None,147.98907549999421,147.9969940999872,147.9969940999872,148.20088530000066,148.40948709996883,148.40368489996763,148.4037167999777,148.40948709996883,,149.1041665999801,,,,,,,,,,,,,,,,,,,,,,,,,,,,,,,,,,,,,,,,,,,,,,,,,,,,,,,,,,,,,,sub107,percept,1,0,2024-08-11_14h41.10.919,ASRT_percept,2023.2.3,144.89057868311625,2024-08-11 15h08.17.340512 +0800,
sequences/sub107_initial_random.csv,1,90,1,3,red,,,,0,0,0,0,0,80,80,80,,,,,,,,,,,,,,,,,,,,,,,,,,,,,149.11056599998847,,,,,,,,,,,,,149.10482200002298,149.11056599998847,149.11056599998847,149.3125126999803,149.48082519997843,3,1,0.3648826000280678,None,149.48153019999154,149.48842080001486,149.48842080001486,149.69418629998108,149.90274079999654,149.8966157999821,149.89665650000097,149.90274079999654,,150.59712400002172,,,,,,,,,,,,,,,,,,,,,,,,,,,,,,,,,,,,,,,,,,,,,,,,,,,,,,,,,,,,,,sub107,percept,1,0,2024-08-11_14h41.10.919,ASRT_percept,2023.2.3,144.89057868311625,2024-08-11 15h08.17.340512 +0800,
sequences/sub107_initial_random.csv,0,0,0,4,red,,,,0,0,0,0,0,81,81,81,,,,,,,,,,,,,,,,,,,,,,,,,,,,,150.60352180001792,,,,,,,,,,,,,150.59764059999725,150.60352180001792,150.60352180001792,150.80562359996838,150.98792509996565,4,1,0.37734239996643737,None,150.98859620001167,150.99557909998111,150.99557909998111,151.20108989998698,151.40973830001894,151.4037928999751,151.40383019996807,151.40973830001894,,152.10420090000844,,,,,,,,,,,,,,,,,,,,,,,,,,,,,,,,,,,,,,,,,,,,,,,,,,,,,,,,,,,,,,sub107,percept,1,0,2024-08-11_14h41.10.919,ASRT_percept,2023.2.3,144.89057868311625,2024-08-11 15h08.17.340512 +0800,
sequences/sub107_initial_random.csv,3,270,3,1,red,,,,0,0,0,0,0,82,82,82,,,,,,,,,,,,,,,,,,,,,,,,,,,,,152.1131061000051,,,,,,,,,,,,,152.10490749997552,152.1131061000051,152.1131061000051,152.31921899999725,152.45877239998663,1,1,0.33851199998753145,None,152.4592418000102,152.46477319998667,152.46477319998667,152.67328899999848,152.8814321999671,152.87532099999953,152.8753534000134,152.8814321999671,,153.57642280001892,,,,,,,,,,,,,,,,,,,,,,,,,,,,,,,,,,,,,,,,,,,,,,,,,,,,,,,,,,,,,,sub107,percept,1,0,2024-08-11_14h41.10.919,ASRT_percept,2023.2.3,144.89057868311625,2024-08-11 15h08.17.340512 +0800,
sequences/sub107_initial_random.csv,1,90,1,3,red,,,,0,0,0,0,0,83,83,83,,,,,,,,,,,,,,,,,,,,,,,,,,,,,153.58267059997888,,,,,,,,,,,,,153.57695020001847,153.58267059997888,153.58267059997888,153.78414499998325,153.94044939999003,3,1,0.3551061999751255,None,153.94104469998274,153.9469628999941,153.9469628999941,154.15213170001516,154.3606165999663,154.3547122000018,154.3547424999997,154.3606165999663,,155.05583229998592,,,,,,,,,,,,,,,,,,,,,,,,,,,,,,,,,,,,,,,,,,,,,,,,,,,,,,,,,,,,,,sub107,percept,1,0,2024-08-11_14h41.10.919,ASRT_percept,2023.2.3,144.89057868311625,2024-08-11 15h08.17.340512 +0800,
sequences/sub107_initial_random.csv,2,180,2,2,red,,,,0,0,0,0,0,84,84,84,,,,,,,,,,,,,,,,,,,,,,,,,,,,,155.06373940000776,,,,,,,,,,,,,155.05655019998085,155.06373940000776,155.06373940000776,155.2636485999683,155.5631962000043,2,1,0.4921106999972835,None,155.56392759998562,155.56891179998638,155.56891179998638,155.7777103999979,155.98597480001627,155.97990440001013,155.97994089999702,155.98597480001627,,156.68067359999986,,,,,,,,,,,,,,,,,,,,,,,,,,,,,,,,,,,,,,,,,,,,,,,,,,,,,,,,,,,,,,sub107,percept,1,0,2024-08-11_14h41.10.919,ASRT_percept,2023.2.3,144.89057868311625,2024-08-11 15h08.17.340512 +0800,
,,,,,,,,,,,,,,,,,,,,,,,,,,,,,,,,,,,,,,,,,,,,,,,,,,,,,,,,,,,,,,,,,,,,,,,,,,,,,156.6808374999673,156.71919649996562,156.71919649996562,210.41680850001285,space,53.69500700000208,None,210.41758539999137,210.42404870002065,210.42404870002065,210.42404870002065,220.6802324000164,space,10.2508405999979,None,,,,,,,,,,,,,,,,,,,,,,,,,,,,,,,,,,,,,,,,,,,,,,,sub107,percept,1,0,2024-08-11_14h41.10.919,ASRT_percept,2023.2.3,144.89057868311625,2024-08-11 15h08.17.340512 +0800,
,0,0,1,3,red,sequences/sub107_practice_sequence_00.csv,,,,,,,,,,,0,0,0,0,0,0,0,74,,,,,,,,,,,,,,,,,,,,,221.7581822000211,,,,,,,,,,220.70429349999176,220.7079253999982,221.68579309998313,221.74831639998592,221.7581822000211,221.7581822000211,221.96336569997948,222.34063370001968,3,1,0.5795669000362977,None,222.34153079998214,222.3476538999821,222.3476538999821,222.55351479997626,222.7620264000143,222.75630199996522,222.75634459999856,222.7620264000143,223.46310799999628,223.45700130000478,,,,,,,,,,,,,,,,,,,,,,,,,,,,,,,,,,,,,,,,,,,,,,,,,,,,,,,,,,,,,,sub107,percept,1,0,2024-08-11_14h41.10.919,ASRT_percept,2023.2.3,144.89057868311625,2024-08-11 15h08.17.340512 +0800,
,0,0,1,3,red,sequences/sub107_practice_sequence_00.csv,,,,,,,,,,,0,0,0,0,0,1,1,57,,,,,,,,,,,,,,,,,,,,,223.46310799999628,,,,,,,,,,,,,223.45753979997244,223.46310799999628,223.46310799999628,223.66468250000617,223.9582425999688,3,1,0.4896779000409879,None,223.9587105999817,223.96406399999978,223.96406399999978,224.17165979999118,224.3799013000098,224.37373589997878,224.37377070001094,224.3799013000098,,225.0749934000196,,,,,,,,,,,,,,,,,,,,,,,,,,,,,,,,,,,,,,,,,,,,,,,,,,,,,,,,,,,,,,sub107,percept,1,0,2024-08-11_14h41.10.919,ASRT_percept,2023.2.3,144.89057868311625,2024-08-11 15h08.17.340512 +0800,
,3,270,0,4,red,sequences/sub107_practice_sequence_00.csv,,,,,,,,,,,0,0,0,0,0,2,2,29,,,,,,,,,,,,,,,,,,,,,225.08214090002002,,,,,,,,,,,,,225.07567779999226,225.08214090002002,225.08214090002002,225.2830123999738,225.70761360001052,4,1,0.6125898000318557,None,225.70839340001112,225.71742210001685,225.71742210001685,225.91469549998874,226.12276489997748,226.11676389997592,226.11680139997043,226.12276489997748,,226.817588099977,,,,,,,,,,,,,,,,,,,,,,,,,,,,,,,,,,,,,,,,,,,,,,,,,,,,,,,,,,,,,,sub107,percept,1,0,2024-08-11_14h41.10.919,ASRT_percept,2023.2.3,144.89057868311625,2024-08-11 15h08.17.340512 +0800,
,1,90,2,2,red,sequences/sub107_practice_sequence_00.csv,,,,,,,,,,,0,0,0,0,0,3,3,51,,,,,,,,,,,,,,,,,,,,,226.82421009999234,,,,,,,,,,,,,226.81811950000701,226.82421009999234,226.82421009999234,227.0256045999704,227.70109260000754,2,1,0.869118399976287,None,227.7016671000165,227.70929889997933,227.70929889997933,227.91479179996531,228.1231514000101,228.11757419997593,228.1176197999739,228.1231514000101,,228.81796670000767,,,,,,,,,,,,,,,,,,,,,,,,,,,,,,,,,,,,,,,,,,,,,,,,,,,,,,,,,,,,,,sub107,percept,1,0,2024-08-11_14h41.10.919,ASRT_percept,2023.2.3,144.89057868311625,2024-08-11 15h08.17.340512 +0800,
,1,90,2,2,red,sequences/sub107_practice_sequence_00.csv,,,,,,,,,,,0,0,0,0,0,4,4,36,,,,,,,,,,,,,,,,,,,,,228.82594090001658,,,,,,,,,,,,,228.81864780001342,228.82594090001658,228.82594090001658,229.02576609997777,229.5275836000219,2,1,0.6943514999584295,None,229.52828349999618,229.5353908999823,229.5353908999823,229.7408421,229.94926570000825,229.94364650000352,229.94368189998204,229.94926570000825,230.6506684999913,230.6441477999906,,,,,,,,,,,,,,,,,,,,,,,,,,,,,,,,,,,,,,,,,,,,,,,,,,,,,,,,,,,,,,sub107,percept,1,0,2024-08-11_14h41.10.919,ASRT_percept,2023.2.3,144.89057868311625,2024-08-11 15h08.17.340512 +0800,
,0,0,1,3,red,sequences/sub107_practice_sequence_00.csv,,,,,,,,,,,0,0,0,0,0,5,5,73,,,,,,,,,,,,,,,,,,,,,230.6506684999913,,,,,,,,,,,,,230.64457010000478,230.6506684999913,230.6506684999913,230.8522879999946,231.2790728000109,3,1,0.6230922999675386,None,231.2799000000232,231.286592199991,231.286592199991,231.49105159996543,231.69921130000148,231.69373549998272,231.69377610000083,231.69921130000148,,232.39428870001575,,,,,,,,,,,,,,,,,,,,,,,,,,,,,,,,,,,,,,,,,,,,,,,,,,,,,,,,,,,,,,sub107,percept,1,0,2024-08-11_14h41.10.919,ASRT_percept,2023.2.3,144.89057868311625,2024-08-11 15h08.17.340512 +0800,
,2,180,3,1,red,sequences/sub107_practice_sequence_00.csv,,,,,,,,,,,0,0,0,0,0,6,6,16,,,,,,,,,,,,,,,,,,,,,232.40240099997027,,,,,,,,,,,,,232.39509299997007,232.40240099997027,232.40240099997027,232.60199699999066,232.9592263000086,1,1,0.553457600006368,None,232.96027009998215,232.96790300001157,232.96790300001157,233.17165939998813,233.38023199996678,233.37409920000937,233.37414640001953,233.38023199996678,,234.07441960001597,,,,,,,,,,,,,,,,,,,,,,,,,,,,,,,,,,,,,,,,,,,,,,,,,,,,,,,,,,,,,,sub107,percept,1,0,2024-08-11_14h41.10.919,ASRT_percept,2023.2.3,144.89057868311625,2024-08-11 15h08.17.340512 +0800,
,0,0,1,3,red,sequences/sub107_practice_sequence_00.csv,,,,,,,,,,,0,0,0,0,0,7,7,82,,,,,,,,,,,,,,,,,,,,,234.0808401000104,,,,,,,,,,,,,234.07505330001004,234.0808401000104,234.0808401000104,234.2825259999954,234.63127499999246,3,1,0.5459687000256963,None,234.6318956000032,234.63972069998272,234.63972069998272,234.84511870000279,235.05353610002203,235.04703239997616,235.04706339997938,235.05353610002203,,235.74789040000178,,,,,,,,,,,,,,,,,,,,,,,,,,,,,,,,,,,,,,,,,,,,,,,,,,,,,,,,,,,,,,sub107,percept,1,0,2024-08-11_14h41.10.919,ASRT_percept,2023.2.3,144.89057868311625,2024-08-11 15h08.17.340512 +0800,
,2,180,3,1,red,sequences/sub107_practice_sequence_00.csv,,,,,,,,,,,0,0,0,0,0,8,8,69,,,,,,,,,,,,,,,,,,,,,235.75519749999512,,,,,,,,,,,,,235.74857369996607,235.75519749999512,235.75519749999512,235.95602929999586,236.32070330000715,1,1,0.5626779000158422,None,236.32145290001063,236.33073230000446,236.33073230000446,236.53286590002244,236.7407266999944,236.73491319996538,236.73494699998992,236.7407266999944,,237.4353113999823,,,,,,,,,,,,,,,,,,,,,,,,,,,,,,,,,,,,,,,,,,,,,,,,,,,,,,,,,,,,,,sub107,percept,1,0,2024-08-11_14h41.10.919,ASRT_percept,2023.2.3,144.89057868311625,2024-08-11 15h08.17.340512 +0800,
,1,90,2,2,red,sequences/sub107_practice_sequence_00.csv,,,,,,,,,,,0,0,0,0,0,9,9,0,,,,,,,,,,,,,,,,,,,,,237.44180359999882,,,,,,,,,,,,,237.43576700001722,237.44180359999882,237.44180359999882,237.64358239999274,238.11826750001637,2,1,0.6719359999988228,None,238.1190417999751,238.12651109998114,238.12651109998114,238.33107870002277,238.53961300000083,238.53458979999414,238.53464299999177,238.53961300000083,239.24185310001485,239.23511820001295,,,,,,,,,,,,,,,,,,,,,,,,,,,,,,,,,,,,,,,,,,,,,,,,,,,,,,,,,,,,,,sub107,percept,1,0,2024-08-11_14h41.10.919,ASRT_percept,2023.2.3,144.89057868311625,2024-08-11 15h08.17.340512 +0800,
,3,270,0,4,red,sequences/sub107_practice_sequence_00.csv,,,,,,,,,,,0,0,0,0,0,10,10,79,,,,,,,,,,,,,,,,,,,,,239.24185310001485,,,,,,,,,,,,,239.23572960001184,239.24185310001485,239.24185310001485,239.44219339999836,239.67394629999762,4,1,0.4302748999907635,None,239.67480520001845,239.68056180002168,239.68056180002168,239.8866067000199,240.095122299972,240.0892465999932,240.08928760001436,240.095122299972,,240.78963189997012,,,,,,,,,,,,,,,,,,,,,,,,,,,,,,,,,,,,,,,,,,,,,,,,,,,,,,,,,,,,,,sub107,percept,1,0,2024-08-11_14h41.10.919,ASRT_percept,2023.2.3,144.89057868311625,2024-08-11 15h08.17.340512 +0800,
,0,0,1,3,red,sequences/sub107_practice_sequence_00.csv,,,,,,,,,,,0,0,0,0,0,11,11,26,,,,,,,,,,,,,,,,,,,,,240.79769420000957,,,,,,,,,,,,,240.79046290001133,240.79769420000957,240.79769420000957,240.9977395000169,241.36897959996713,3,1,0.568175699969288,None,241.36961569997948,241.3757776999846,241.3757776999846,241.58068710000953,241.78927900001872,241.78370450000511,241.78375429997686,241.78927900001872,,242.4839131999761,,,,,,,,,,,,,,,,,,,,,,,,,,,,,,,,,,,,,,,,,,,,,,,,,,,,,,,,,,,,,,sub107,percept,1,0,2024-08-11_14h41.10.919,ASRT_percept,2023.2.3,144.89057868311625,2024-08-11 15h08.17.340512 +0800,
,1,90,2,2,red,sequences/sub107_practice_sequence_00.csv,,,,,,,,,,,0,0,0,0,0,12,12,13,,,,,,,,,,,,,,,,,,,,,242.49083740002243,,,,,,,,,,,,,242.4844577999902,242.49083740002243,242.49083740002243,242.69211349997204,243.08355949999532,2,1,0.5884773000143468,None,243.08423939999193,243.09253670001635,243.09253670001635,243.29610749997664,243.5044334999984,243.49809950002236,243.49812439997913,243.5044334999984,,244.19954230001895,,,,,,,,,,,,,,,,,,,,,,,,,,,,,,,,,,,,,,,,,,,,,,,,,,,,,,,,,,,,,,sub107,percept,1,0,2024-08-11_14h41.10.919,ASRT_percept,2023.2.3,144.89057868311625,2024-08-11 15h08.17.340512 +0800,
,0,0,1,3,red,sequences/sub107_practice_sequence_00.csv,,,,,,,,,,,0,0,0,0,0,13,13,34,,,,,,,,,,,,,,,,,,,,,244.20582129998365,,,,,,,,,,,,,244.2001177999773,244.20582129998365,244.20582129998365,244.40782389999367,244.7651931999717,3,1,0.556259700038936,None,244.7658580999705,244.77260379999643,244.77260379999643,244.97678640001686,245.18466379999882,245.178748300008,245.17877790000057,245.18466379999882,,245.8798202999751,,,,,,,,,,,,,,,,,,,,,,,,,,,,,,,,,,,,,,,,,,,,,,,,,,,,,,,,,,,,,,sub107,percept,1,0,2024-08-11_14h41.10.919,ASRT_percept,2023.2.3,144.89057868311625,2024-08-11 15h08.17.340512 +0800,
,2,180,3,1,red,sequences/sub107_practice_sequence_00.csv,,,,,,,,,,,0,0,0,0,0,14,14,21,,,,,,,,,,,,,,,,,,,,,245.88629789999686,,,,,,,,,,,,,245.88039870001376,245.88629789999686,245.88629789999686,246.0880169000011,246.32523339998443,1,1,0.4321635999949649,None,246.3259462999995,246.33172119996743,246.33172119996743,246.53900370001793,246.7474201999721,246.74108419998083,246.74111100001028,246.7474201999721,,247.44204829999944,,,,,,,,,,,,,,,,,,,,,,,,,,,,,,,,,,,,,,,,,,,,,,,,,,,,,,,,,,,,,,sub107,percept,1,0,2024-08-11_14h41.10.919,ASRT_percept,2023.2.3,144.89057868311625,2024-08-11 15h08.17.340512 +0800,
,0,0,1,3,red,sequences/sub107_practice_sequence_00.csv,,,,,,,,,,,0,0,0,0,0,15,15,76,,,,,,,,,,,,,,,,,,,,,247.44910739996703,,,,,,,,,,,,,247.44266120000975,247.44910739996703,247.44910739996703,247.65034880000167,247.8896508999751,3,1,0.43784260004758835,None,247.89028599997982,247.895806799992,247.895806799992,248.1017100000172,248.310021399986,248.30428679997567,248.30432419996941,248.310021399986,,249.00468379998347,,,,,,,,,,,,,,,,,,,,,,,,,,,,,,,,,,,,,,,,,,,,,,,,,,,,,,,,,,,,,,sub107,percept,1,0,2024-08-11_14h41.10.919,ASRT_percept,2023.2.3,144.89057868311625,2024-08-11 15h08.17.340512 +0800,
,1,90,2,2,red,sequences/sub107_practice_sequence_00.csv,,,,,,,,,,,0,0,0,0,0,16,16,84,,,,,,,,,,,,,,,,,,,,,249.01116940000793,,,,,,,,,,,,,249.00521859998116,249.01116940000793,249.01116940000793,249.21240149997175,249.66665119997924,2,1,0.6491903000278398,None,249.66735950001748,249.67729319998762,249.67729319998762,249.8798818999785,250.08797270001378,250.08219049999025,250.08223120000912,250.08797270001378,,250.78275229997234,,,,,,,,,,,,,,,,,,,,,,,,,,,,,,,,,,,,,,,,,,,,,,,,,,,,,,,,,,,,,,sub107,percept,1,0,2024-08-11_14h41.10.919,ASRT_percept,2023.2.3,144.89057868311625,2024-08-11 15h08.17.340512 +0800,
,1,90,2,2,red,sequences/sub107_practice_sequence_00.csv,,,,,,,,,,,0,0,0,0,0,17,17,8,,,,,,,,,,,,,,,,,,,,,250.78966989996843,,,,,,,,,,,,,250.7834493999835,250.78966989996843,250.78966989996843,250.9905593000003,251.2909530000179,2,1,0.4965233000111766,None,251.2915922999964,251.29734729998745,251.29734729998745,251.50437599996803,251.71273759996984,251.7073261999758,251.70736529998248,251.71273759996984,,252.40796189999674,,,,,,,,,,,,,,,,,,,,,,,,,,,,,,,,,,,,,,,,,,,,,,,,,,,,,,,,,,,,,,sub107,percept,1,0,2024-08-11_14h41.10.919,ASRT_percept,2023.2.3,144.89057868311625,2024-08-11 15h08.17.340512 +0800,
,2,180,3,1,red,sequences/sub107_practice_sequence_00.csv,,,,,,,,,,,0,0,0,0,0,18,18,25,,,,,,,,,,,,,,,,,,,,,252.41656909999438,,,,,,,,,,,,,252.4086986000184,252.41656909999438,252.41656909999438,252.61560399999144,252.91727400000673,1,1,0.4932618999737315,None,252.9182464000187,252.9252502999734,252.9252502999734,253.1294624999864,253.3378758999752,253.331682500022,253.33171679999214,253.3378758999752,,254.03270619997056,,,,,,,,,,,,,,,,,,,,,,,,,,,,,,,,,,,,,,,,,,,,,,,,,,,,,,,,,,,,,,sub107,percept,1,0,2024-08-11_14h41.10.919,ASRT_percept,2023.2.3,144.89057868311625,2024-08-11 15h08.17.340512 +0800,
,0,0,1,3,red,sequences/sub107_practice_sequence_00.csv,,,,,,,,,,,0,0,0,0,0,19,19,35,,,,,,,,,,,,,,,,,,,,,254.03969730000244,,,,,,,,,,,,,254.03339399996912,254.03969730000244,254.03969730000244,254.24053999996977,254.52723669999978,3,1,0.483547699986957,None,254.52784679998877,254.53272389998892,254.53272389998892,254.74047740001697,254.94869220000692,254.94310570001835,254.94314970000414,254.94869220000692,,255.64365220000036,,,,,,,,,,,,,,,,,,,,,,,,,,,,,,,,,,,,,,,,,,,,,,,,,,,,,,,,,,,,,,sub107,percept,1,0,2024-08-11_14h41.10.919,ASRT_percept,2023.2.3,144.89057868311625,2024-08-11 15h08.17.340512 +0800,
,1,90,2,2,red,sequences/sub107_practice_sequence_00.csv,,,,,,,,,,,0,0,0,0,0,20,20,41,,,,,,,,,,,,,,,,,,,,,255.65020269999513,,,,,,,,,,,,,255.64417669997783,255.65020269999513,255.65020269999513,255.851820699987,256.1655540000065,2,1,0.5083427000208758,None,256.1661304999725,256.17363500001375,256.17363500001375,256.3794761999743,256.5877739000134,256.5820776000037,256.5821222999948,256.5877739000134,,257.2841270000208,,,,,,,,,,,,,,,,,,,,,,,,,,,,,,,,,,,,,,,,,,,,,,,,,,,,,,,,,,,,,,sub107,percept,1,0,2024-08-11_14h41.10.919,ASRT_percept,2023.2.3,144.89057868311625,2024-08-11 15h08.17.340512 +0800,
,0,0,1,3,red,sequences/sub107_practice_sequence_00.csv,,,,,,,,,,,0,0,0,0,0,21,21,62,,,,,,,,,,,,,,,,,,,,,257.2957840000163,,,,,,,,,,,,,257.28499860002194,257.2957840000163,257.2957840000163,257.49749129998963,257.8686547999969,3,1,0.5649153999984264,None,257.8693547999719,257.8755486999871,257.8755486999871,258.0810637999675,258.2890691999928,258.2829234999954,258.28295359999174,258.2890691999928,,258.9838878000155,,,,,,,,,,,,,,,,,,,,,,,,,,,,,,,,,,,,,,,,,,,,,,,,,,,,,,,,,,,,,,sub107,percept,1,0,2024-08-11_14h41.10.919,ASRT_percept,2023.2.3,144.89057868311625,2024-08-11 15h08.17.340512 +0800,
,0,0,1,3,red,sequences/sub107_practice_sequence_00.csv,,,,,,,,,,,0,0,0,0,0,22,22,77,,,,,,,,,,,,,,,,,,,,,258.9910820000223,,,,,,,,,,,,,258.9847770999768,258.9910820000223,258.9910820000223,259.19204850000096,259.4584885999793,3,1,0.46497779997298494,None,259.45903829997405,259.4649672000087,259.4649672000087,259.6713838999858,259.8793600000208,259.87302790000103,259.8730604000157,259.8793600000208,,260.57412780000595,,,,,,,,,,,,,,,,,,,,,,,,,,,,,,,,,,,,,,,,,,,,,,,,,,,,,,,,,,,,,,sub107,percept,1,0,2024-08-11_14h41.10.919,ASRT_percept,2023.2.3,144.89057868311625,2024-08-11 15h08.17.340512 +0800,
,1,90,2,2,red,sequences/sub107_practice_sequence_00.csv,,,,,,,,,,,0,0,0,0,0,23,23,28,,,,,,,,,,,,,,,,,,,,,260.58129659999395,,,,,,,,,,,,,260.57472420000704,260.58129659999395,260.58129659999395,260.782237300009,261.0915851999889,2,1,0.5067084000329487,None,261.09229429997504,261.10086539998883,261.10086539998883,261.30287730001146,261.5109521999839,261.5059237999958,261.5059689999907,261.5109521999839,,262.2068387999898,,,,,,,,,,,,,,,,,,,,,,,,,,,,,,,,,,,,,,,,,,,,,,,,,,,,,,,,,,,,,,sub107,percept,1,0,2024-08-11_14h41.10.919,ASRT_percept,2023.2.3,144.89057868311625,2024-08-11 15h08.17.340512 +0800,
,0,0,1,3,red,sequences/sub107_practice_sequence_00.csv,,,,,,,,,,,0,0,0,0,0,24,24,19,,,,,,,,,,,,,,,,,,,,,262.21410029998515,,,,,,,,,,,,,262.20774569996865,262.21410029998515,262.21410029998515,262.41465170000447,262.7573241000064,3,1,0.538498800015077,None,262.75803869997617,262.7635199999786,262.7635199999786,262.96953150001355,263.17773499997566,263.17194959998596,263.1720016999752,263.17773499997566,,263.8722691999865,,,,,,,,,,,,,,,,,,,,,,,,,,,,,,,,,,,,,,,,,,,,,,,,,,,,,,,,,,,,,,sub107,percept,1,0,2024-08-11_14h41.10.919,ASRT_percept,2023.2.3,144.89057868311625,2024-08-11 15h08.17.340512 +0800,
,1,90,2,2,red,sequences/sub107_practice_sequence_00.csv,,,,,,,,,,,0,0,0,0,0,25,25,64,,,,,,,,,,,,,,,,,,,,,263.8791638999828,,,,,,,,,,,,,263.87292749999324,263.8791638999828,263.8791638999828,264.0811877999804,264.4242870999733,2,1,0.538907400041353,None,264.4251396000036,264.4325068999897,264.4325068999897,264.6361002000049,264.8443436999805,264.8395601999946,264.8396178999683,264.8443436999805,265.54789679998066,265.54070810001576,,,,,,,,,,,,,,,,,,,,,,,,,,,,,,,,,,,,,,,,,,,,,,,,,,,,,,,,,,,,,,sub107,percept,1,0,2024-08-11_14h41.10.919,ASRT_percept,2023.2.3,144.89057868311625,2024-08-11 15h08.17.340512 +0800,
,1,90,2,2,red,sequences/sub107_practice_sequence_00.csv,,,,,,,,,,,0,0,0,0,0,26,26,50,,,,,,,,,,,,,,,,,,,,,265.54789679998066,,,,,,,,,,,,,265.54141210002126,265.54789679998066,265.54789679998066,265.7471807000111,266.13932399998885,2,1,0.58557249995647,None,266.1401088999701,266.1474809999927,266.1474809999927,266.3513418000075,266.55934829998296,266.5542952999822,266.5543412999832,266.55934829998296,,267.2576703999657,,,,,,,,,,,,,,,,,,,,,,,,,,,,,,,,,,,,,,,,,,,,,,,,,,,,,,,,,,,,,,sub107,percept,1,0,2024-08-11_14h41.10.919,ASRT_percept,2023.2.3,144.89057868311625,2024-08-11 15h08.17.340512 +0800,
,0,0,1,3,red,sequences/sub107_practice_sequence_00.csv,,,,,,,,,,,0,0,0,0,0,27,27,24,,,,,,,,,,,,,,,,,,,,,267.2700749000069,,,,,,,,,,,,,267.2590366000077,267.2700749000069,267.2700749000069,267.47221370000625,267.76395839999896,3,1,0.49005349999060854,None,267.76469480001833,267.77133109996794,267.77133109996794,267.97642259998247,268.18601040000794,268.1787401000038,268.17877920001047,268.18601040000794,,268.87944689998403,,,,,,,,,,,,,,,,,,,,,,,,,,,,,,,,,,,,,,,,,,,,,,,,,,,,,,,,,,,,,,sub107,percept,1,0,2024-08-11_14h41.10.919,ASRT_percept,2023.2.3,144.89057868311625,2024-08-11 15h08.17.340512 +0800,
,3,270,0,4,red,sequences/sub107_practice_sequence_00.csv,,,,,,,,,,,0,0,0,0,0,28,28,33,,,,,,,,,,,,,,,,,,,,,268.8858294999809,,,,,,,,,,,,,268.88010870001744,268.8858294999809,268.8858294999809,269.0874344999902,269.42300269997213,4,1,0.5329806000227109,None,269.4236407999997,269.42869570001494,269.42869570001494,269.6365068000159,269.8444610000006,269.8381949000177,269.83823639998445,269.8444610000006,,270.53969760000473,,,,,,,,,,,,,,,,,,,,,,,,,,,,,,,,,,,,,,,,,,,,,,,,,,,,,,,,,,,,,,sub107,percept,1,0,2024-08-11_14h41.10.919,ASRT_percept,2023.2.3,144.89057868311625,2024-08-11 15h08.17.340512 +0800,
,1,90,2,2,red,sequences/sub107_practice_sequence_00.csv,,,,,,,,,,,0,0,0,0,0,29,29,2,,,,,,,,,,,,,,,,,,,,,270.5463055999717,,,,,,,,,,,,,270.5403922999976,270.5463055999717,270.5463055999717,270.7475561000174,271.03412590001244,2,1,0.48388399998657405,None,271.0348185999901,271.0404383999994,271.0404383999994,271.2470685999724,271.4558681999915,271.44940179999685,271.44943829998374,271.4558681999915,,272.1499652999919,,,,,,,,,,,,,,,,,,,,,,,,,,,,,,,,,,,,,,,,,,,,,,,,,,,,,,,,,,,,,,sub107,percept,1,0,2024-08-11_14h41.10.919,ASRT_percept,2023.2.3,144.89057868311625,2024-08-11 15h08.17.340512 +0800,
,2,180,3,1,red,sequences/sub107_practice_sequence_00.csv,,,,,,,,,,,0,0,0,0,0,30,30,32,,,,,,,,,,,,,,,,,,,,,272.15691429999424,,,,,,,,,,,,,272.1504743999685,272.15691429999424,272.15691429999424,272.3580445999978,272.6656724999775,1,1,0.5033972000237554,None,272.6664005999919,272.673490999965,272.673490999965,272.878913499997,273.0872792999726,273.0817277000169,273.0817730000126,273.0872792999726,273.78867889998946,273.78233909996925,,,,,,,,,,,,,,,,,,,,,,,,,,,,,,,,,,,,,,,,,,,,,,,,,,,,,,,,,,,,,,sub107,percept,1,0,2024-08-11_14h41.10.919,ASRT_percept,2023.2.3,144.89057868311625,2024-08-11 15h08.17.340512 +0800,
,3,270,0,4,red,sequences/sub107_practice_sequence_00.csv,,,,,,,,,,,0,0,0,0,0,31,31,42,,,,,,,,,,,,,,,,,,,,,273.78867889998946,,,,,,,,,,,,,273.7828427000204,273.78867889998946,273.78867889998946,273.9900764999911,274.2508175999974,4,1,0.45842269994318485,None,274.25157730001956,274.25818679999793,274.25818679999793,274.46263929997804,274.671616800013,274.66521469998406,274.66526099998737,274.671616800013,,275.36554319999414,,,,,,,,,,,,,,,,,,,,,,,,,,,,,,,,,,,,,,,,,,,,,,,,,,,,,,,,,,,,,,sub107,percept,1,0,2024-08-11_14h41.10.919,ASRT_percept,2023.2.3,144.89057868311625,2024-08-11 15h08.17.340512 +0800,
,3,270,0,4,red,sequences/sub107_practice_sequence_00.csv,,,,,,,,,,,0,0,0,0,0,32,32,37,,,,,,,,,,,,,,,,,,,,,275.3729163999669,,,,,,,,,,,,,275.3661590999691,275.3729163999669,275.3729163999669,275.5738820999977,275.9663203000091,4,1,0.5904309000470676,None,275.96709140000166,275.97705779998796,275.97705779998796,276.177121500019,276.3860527999932,276.37981239997316,276.37985409999965,276.3860527999932,,277.0805945000029,,,,,,,,,,,,,,,,,,,,,,,,,,,,,,,,,,,,,,,,,,,,,,,,,,,,,,,,,,,,,,sub107,percept,1,0,2024-08-11_14h41.10.919,ASRT_percept,2023.2.3,144.89057868311625,2024-08-11 15h08.17.340512 +0800,
,1,90,2,2,red,sequences/sub107_practice_sequence_00.csv,,,,,,,,,,,0,0,0,0,0,33,33,56,,,,,,,,,,,,,,,,,,,,,277.0870179000194,,,,,,,,,,,,,277.0811154000112,277.0870179000194,277.0870179000194,277.28899739996996,277.5061949999654,2,1,0.41198709997115657,None,277.50688250001986,277.51280600001337,277.51280600001337,277.720924299967,277.92793679999886,277.9224356000195,277.9224839999806,277.92793679999886,278.62871149997227,278.62262039998313,,,,,,,,,,,,,,,,,,,,,,,,,,,,,,,,,,,,,,,,,,,,,,,,,,,,,,,,,,,,,,sub107,percept,1,0,2024-08-11_14h41.10.919,ASRT_percept,2023.2.3,144.89057868311625,2024-08-11 15h08.17.340512 +0800,
,0,0,1,3,red,sequences/sub107_practice_sequence_00.csv,,,,,,,,,,,0,0,0,0,0,34,34,6,,,,,,,,,,,,,,,,,,,,,278.62871149997227,,,,,,,,,,,,,278.623154699977,278.62871149997227,278.62871149997227,278.830470099987,279.0826662000036,3,1,0.45090100000379607,None,279.08326340001076,279.0899834000156,279.0899834000156,279.295500600012,279.50310999999056,279.4994074999704,279.4994580000057,279.50310999999056,280.207567800011,280.199907000002,,,,,,,,,,,,,,,,,,,,,,,,,,,,,,,,,,,,,,,,,,,,,,,,,,,,,,,,,,,,,,sub107,percept,1,0,2024-08-11_14h41.10.919,ASRT_percept,2023.2.3,144.89057868311625,2024-08-11 15h08.17.340512 +0800,
,3,270,0,4,red,sequences/sub107_practice_sequence_00.csv,,,,,,,,,,,0,0,0,0,0,35,35,59,,,,,,,,,,,,,,,,,,,,,280.207567800011,,,,,,,,,,,,,280.2007539999904,280.207567800011,280.207567800011,280.4070151000051,280.7285088999779,4,1,0.5174769000150263,None,280.72911499999464,280.7360233999789,280.7360233999789,280.9416095999768,281.1496288999915,281.144011700002,281.14406149997376,281.1496288999915,,281.8447740999982,,,,,,,,,,,,,,,,,,,,,,,,,,,,,,,,,,,,,,,,,,,,,,,,,,,,,,,,,,,,,,sub107,percept,1,0,2024-08-11_14h41.10.919,ASRT_percept,2023.2.3,144.89057868311625,2024-08-11 15h08.17.340512 +0800,
,2,180,3,1,red,sequences/sub107_practice_sequence_00.csv,,,,,,,,,,,0,0,0,0,0,36,36,4,,,,,,,,,,,,,,,,,,,,,281.85642570001073,,,,,,,,,,,,,281.84541890001856,281.85642570001073,281.85642570001073,282.05929810000816,282.470755700022,1,1,0.6109445000183769,None,282.4709996000165,282.4758308000164,282.4758308000164,282.6845628999872,282.8927469999762,282.8871000999934,282.8871461999952,282.8927469999762,,283.58746279997285,,,,,,,,,,,,,,,,,,,,,,,,,,,,,,,,,,,,,,,,,,,,,,,,,,,,,,,,,,,,,,sub107,percept,1,0,2024-08-11_14h41.10.919,ASRT_percept,2023.2.3,144.89057868311625,2024-08-11 15h08.17.340512 +0800,
,1,90,2,2,red,sequences/sub107_practice_sequence_00.csv,,,,,,,,,,,0,0,0,0,0,37,37,75,,,,,,,,,,,,,,,,,,,,,283.59365100000286,,,,,,,,,,,,,283.58817429997725,283.59365100000286,283.59365100000286,283.79510619997745,284.1457803999656,2,1,0.5486256000003777,None,284.1465239999816,284.1561820000061,284.1561820000061,284.3577834999887,284.56600429996615,284.560671299987,284.5607120000059,284.56600429996615,,285.26147749996744,,,,,,,,,,,,,,,,,,,,,,,,,,,,,,,,,,,,,,,,,,,,,,,,,,,,,,,,,,,,,,sub107,percept,1,0,2024-08-11_14h41.10.919,ASRT_percept,2023.2.3,144.89057868311625,2024-08-11 15h08.17.340512 +0800,
,1,90,2,2,red,sequences/sub107_practice_sequence_00.csv,,,,,,,,,,,0,0,0,0,0,38,38,66,,,,,,,,,,,,,,,,,,,,,285.2715785999899,,,,,,,,,,,,,285.26236669998616,285.2715785999899,285.2715785999899,285.47611250000773,285.92469209997216,2,1,0.642895299999509,None,285.9252593999845,285.93106019997504,285.93106019997504,286.13609220000217,286.344428899989,286.33800930000143,286.338051299972,286.344428899989,,287.0389620999922,,,,,,,,,,,,,,,,,,,,,,,,,,,,,,,,,,,,,,,,,,,,,,,,,,,,,,,,,,,,,,sub107,percept,1,0,2024-08-11_14h41.10.919,ASRT_percept,2023.2.3,144.89057868311625,2024-08-11 15h08.17.340512 +0800,
,3,270,0,4,red,sequences/sub107_practice_sequence_00.csv,,,,,,,,,,,0,0,0,0,0,39,39,55,,,,,,,,,,,,,,,,,,,,,287.04730410000775,,,,,,,,,,,,,287.039678799978,287.04730410000775,287.04730410000775,287.24721160001354,287.6277314000181,4,1,0.5701371000031941,None,287.62833540001884,287.63446460000705,287.63446460000705,287.8372572999797,288.0450214999728,288.0400373999728,288.0400881000096,288.0450214999728,,288.74029629997676,,,,,,,,,,,,,,,,,,,,,,,,,,,,,,,,,,,,,,,,,,,,,,,,,,,,,,,,,,,,,,sub107,percept,1,0,2024-08-11_14h41.10.919,ASRT_percept,2023.2.3,144.89057868311625,2024-08-11 15h08.17.340512 +0800,
,0,0,1,3,red,sequences/sub107_practice_sequence_00.csv,,,,,,,,,,,0,0,0,0,0,40,40,45,,,,,,,,,,,,,,,,,,,,,288.74636140000075,,,,,,,,,,,,,288.7409570000018,288.74636140000075,288.74636140000075,288.9485394000076,289.37582780001685,3,1,0.6199412000132725,None,289.3766733999946,289.3826751000015,289.3826751000015,289.5869293999858,289.795635699993,289.789739299973,289.78978990000905,289.795635699993,,290.4899747999734,,,,,,,,,,,,,,,,,,,,,,,,,,,,,,,,,,,,,,,,,,,,,,,,,,,,,,,,,,,,,,sub107,percept,1,0,2024-08-11_14h41.10.919,ASRT_percept,2023.2.3,144.89057868311625,2024-08-11 15h08.17.340512 +0800,
,1,90,2,2,red,sequences/sub107_practice_sequence_00.csv,,,,,,,,,,,0,0,0,0,0,41,41,48,,,,,,,,,,,,,,,,,,,,,290.49614429997746,,,,,,,,,,,,,290.4905892999959,290.49614429997746,290.49614429997746,290.6983902999782,290.9875107000116,2,1,0.4873810999561101,None,290.9882223000168,290.99473739997484,290.99473739997484,291.1981207000208,291.4068589999806,291.40101560001494,291.4011121999938,291.4068589999806,292.1079784000176,292.1020659999922,,,,,,,,,,,,,,,,,,,,,,,,,,,,,,,,,,,,,,,,,,,,,,,,,,,,,,,,,,,,,,sub107,percept,1,0,2024-08-11_14h41.10.919,ASRT_percept,2023.2.3,144.89057868311625,2024-08-11 15h08.17.340512 +0800,
,0,0,1,3,red,sequences/sub107_practice_sequence_00.csv,,,,,,,,,,,0,0,0,0,0,42,42,71,,,,,,,,,,,,,,,,,,,,,292.1079784000176,,,,,,,,,,,,,292.10274910001317,292.1079784000176,292.1079784000176,292.3097605999792,292.61648419999983,3,1,0.5025068999966606,None,292.6172346000094,292.6232449999661,292.6232449999661,292.8300823000027,293.03833660000237,293.03258130000904,293.03263299999526,293.03833660000237,,293.7333823000081,,,,,,,,,,,,,,,,,,,,,,,,,,,,,,,,,,,,,,,,,,,,,,,,,,,,,,,,,,,,,,sub107,percept,1,0,2024-08-11_14h41.10.919,ASRT_percept,2023.2.3,144.89057868311625,2024-08-11 15h08.17.340512 +0800,
,0,0,1,3,red,sequences/sub107_practice_sequence_00.csv,,,,,,,,,,,0,0,0,0,0,43,43,14,,,,,,,,,,,,,,,,,,,,,293.7413370999857,,,,,,,,,,,,,293.73433369997656,293.7413370999857,293.7413370999857,293.94190259999596,294.2160884999903,3,1,0.47134759998880327,None,294.2168321000063,294.223834000004,294.223834000004,294.42717069998616,294.6357318999944,294.6303830000106,294.6304358000052,294.6357318999944,295.3404096000013,295.33155709999846,,,,,,,,,,,,,,,,,,,,,,,,,,,,,,,,,,,,,,,,,,,,,,,,,,,,,,,,,,,,,,sub107,percept,1,0,2024-08-11_14h41.10.919,ASRT_percept,2023.2.3,144.89057868311625,2024-08-11 15h08.17.340512 +0800,
,1,90,2,2,red,sequences/sub107_practice_sequence_00.csv,,,,,,,,,,,0,0,0,0,0,44,44,68,,,,,,,,,,,,,,,,,,,,,295.3404096000013,,,,,,,,,,,,,295.33230670000194,295.3404096000013,295.3404096000013,295.5462028000038,295.90183160000015,2,1,0.5536645000101998,None,295.90247610001825,295.9097998000216,295.9097998000216,296.1145794999902,296.3299601000035,296.322580499982,296.3226318999659,296.3299601000035,,297.0243461999926,,,,,,,,,,,,,,,,,,,,,,,,,,,,,,,,,,,,,,,,,,,,,,,,,,,,,,,,,,,,,,sub107,percept,1,0,2024-08-11_14h41.10.919,ASRT_percept,2023.2.3,144.89057868311625,2024-08-11 15h08.17.340512 +0800,
,2,180,3,1,red,sequences/sub107_practice_sequence_00.csv,,,,,,,,,,,0,0,0,0,0,45,45,83,,,,,,,,,,,,,,,,,,,,,297.0317943000118,,,,,,,,,,,,,297.02497129997937,297.0317943000118,297.0317943000118,297.2327224999899,297.6382301999838,1,1,0.601679899962619,None,297.63899279996986,297.64499659999274,297.64499659999274,297.85047060000943,298.0589161000098,298.0536849999917,298.05373549996875,298.0589161000098,,298.7540487999795,,,,,,,,,,,,,,,,,,,,,,,,,,,,,,,,,,,,,,,,,,,,,,,,,,,,,,,,,,,,,,sub107,percept,1,0,2024-08-11_14h41.10.919,ASRT_percept,2023.2.3,144.89057868311625,2024-08-11 15h08.17.340512 +0800,
,3,270,0,4,red,sequences/sub107_practice_sequence_00.csv,,,,,,,,,,,0,0,0,0,0,46,46,12,,,,,,,,,,,,,,,,,,,,,298.76364199997624,,,,,,,,,,,,,298.7549246000126,298.76364199997624,298.76364199997624,298.96885030000703,299.27256469998974,4,1,0.503305799968075,None,299.273441599973,299.2813865999924,299.2813865999924,299.48268100002315,299.69095069996547,299.6849160999991,299.6849707000074,299.69095069996547,,300.38526299997466,,,,,,,,,,,,,,,,,,,,,,,,,,,,,,,,,,,,,,,,,,,,,,,,,,,,,,,,,,,,,,sub107,percept,1,0,2024-08-11_14h41.10.919,ASRT_percept,2023.2.3,144.89057868311625,2024-08-11 15h08.17.340512 +0800,
,3,270,0,4,red,sequences/sub107_practice_sequence_00.csv,,,,,,,,,,,0,0,0,0,0,47,47,49,,,,,,,,,,,,,,,,,,,,,300.3921031000209,,,,,,,,,,,,,300.3861990000005,300.3921031000209,300.3921031000209,300.594095700013,300.9300388999982,4,1,0.532914699986577,None,300.930730699969,300.9373838999891,300.9373838999891,301.14217279996956,301.35282859997824,301.34653480001725,301.3465905999765,301.35282859997824,302.0534905999666,302.0462424000143,,,,,,,,,,,,,,,,,,,,,,,,,,,,,,,,,,,,,,,,,,,,,,,,,,,,,,,,,,,,,,sub107,percept,1,0,2024-08-11_14h41.10.919,ASRT_percept,2023.2.3,144.89057868311625,2024-08-11 15h08.17.340512 +0800,
,0,0,1,3,red,sequences/sub107_practice_sequence_00.csv,,,,,,,,,,,0,0,0,0,0,48,48,18,,,,,,,,,,,,,,,,,,,,,302.0534905999666,,,,,,,,,,,,,302.0470195999951,302.0534905999666,302.0534905999666,302.25398219999624,302.6045682000113,3,1,0.546534100023564,None,302.6053731999709,302.611815900018,302.611815900018,302.81797809997806,303.0235122999875,303.02045499999076,303.0204830999719,303.0235122999875,303.72665079997387,303.72020470001735,,,,,,,,,,,,,,,,,,,,,,,,,,,,,,,,,,,,,,,,,,,,,,,,,,,,,,,,,,,,,,sub107,percept,1,0,2024-08-11_14h41.10.919,ASRT_percept,2023.2.3,144.89057868311625,2024-08-11 15h08.17.340512 +0800,
,2,180,3,1,red,sequences/sub107_practice_sequence_00.csv,,,,,,,,,,,0,0,0,0,0,49,49,58,,,,,,,,,,,,,,,,,,,,,303.72665079997387,,,,,,,,,,,,,303.7209198999917,303.72665079997387,303.72665079997387,303.9270499999984,304.263525700022,1,1,0.532296099991072,None,304.2643021999975,304.27257299999474,304.27257299999474,304.47629819996655,304.6835422000149,304.67812130000675,304.6781592000043,304.6835422000149,,305.37825100001646,,,,,,,,,,,,,,,,,,,,,,,,,,,,,,,,,,,,,,,,,,,,,,,,,,,,,,,,,,,,,,sub107,percept,1,0,2024-08-11_14h41.10.919,ASRT_percept,2023.2.3,144.89057868311625,2024-08-11 15h08.17.340512 +0800,
,0,0,1,3,red,sequences/sub107_practice_sequence_00.csv,,,,,,,,,,,0,0,0,0,0,50,50,44,,,,,,,,,,,,,,,,,,,,,305.3859879000229,,,,,,,,,,,,,305.378788299975,305.3859879000229,305.3859879000229,305.58684990002075,305.87339730001986,3,1,0.4813811000203714,None,305.8740261999774,305.88007529999595,305.88007529999595,306.08696809998946,306.2981642999803,306.2902651000186,306.2903229999938,306.2981642999803,,306.99671069998294,,,,,,,,,,,,,,,,,,,,,,,,,,,,,,,,,,,,,,,,,,,,,,,,,,,,,,,,,,,,,,sub107,percept,1,0,2024-08-11_14h41.10.919,ASRT_percept,2023.2.3,144.89057868311625,2024-08-11 15h08.17.340512 +0800,
,0,0,1,3,red,sequences/sub107_practice_sequence_00.csv,,,,,,,,,,,0,0,0,0,0,51,51,80,,,,,,,,,,,,,,,,,,,,,307.00333149998914,,,,,,,,,,,,,306.9973493000143,307.00333149998914,307.00333149998914,307.2052403999842,307.70714760001283,3,1,0.6981725000077859,None,307.70822179998504,307.7148834000109,307.7148834000109,307.91998999996576,308.1284055999713,308.122298399976,308.12233629997354,308.1284055999713,,308.8226690000156,,,,,,,,,,,,,,,,,,,,,,,,,,,,,,,,,,,,,,,,,,,,,,,,,,,,,,,,,,,,,,sub107,percept,1,0,2024-08-11_14h41.10.919,ASRT_percept,2023.2.3,144.89057868311625,2024-08-11 15h08.17.340512 +0800,
,1,90,2,2,red,sequences/sub107_practice_sequence_00.csv,,,,,,,,,,,0,0,0,0,0,52,52,40,,,,,,,,,,,,,,,,,,,,,308.83036650001304,,,,,,,,,,,,,308.8232976999716,308.83036650001304,308.83036650001304,309.03117899998324,309.51464090001537,2,1,0.6802313000080176,None,309.51623180002207,309.5225096999784,309.5225096999784,309.7255465000053,309.9338478000136,309.92826949997107,309.92832000000635,309.9338478000136,310.63487680000253,310.62905330001377,,,,,,,,,,,,,,,,,,,,,,,,,,,,,,,,,,,,,,,,,,,,,,,,,,,,,,,,,,,,,,sub107,percept,1,0,2024-08-11_14h41.10.919,ASRT_percept,2023.2.3,144.89057868311625,2024-08-11 15h08.17.340512 +0800,
,2,180,3,1,red,sequences/sub107_practice_sequence_00.csv,,,,,,,,,,,0,0,0,0,0,53,53,1,,,,,,,,,,,,,,,,,,,,,310.63487680000253,,,,,,,,,,,,,310.62961499998346,310.63487680000253,310.63487680000253,310.8364937999868,311.1457885999698,1,1,0.507880599994678,None,311.14644909999333,311.1564548999886,311.1564548999886,311.3575995999854,311.56621159997303,311.56131700001424,311.5613682999974,311.56621159997303,312.2672625000123,312.2613437999971,,,,,,,,,,,,,,,,,,,,,,,,,,,,,,,,,,,,,,,,,,,,,,,,,,,,,,,,,,,,,,sub107,percept,1,0,2024-08-11_14h41.10.919,ASRT_percept,2023.2.3,144.89057868311625,2024-08-11 15h08.17.340512 +0800,
,3,270,0,4,red,sequences/sub107_practice_sequence_00.csv,,,,,,,,,,,0,0,0,0,0,54,54,10,,,,,,,,,,,,,,,,,,,,,312.2672625000123,,,,,,,,,,,,,312.2619168999954,312.2672625000123,312.2672625000123,312.46941059996607,312.7606596999685,4,1,0.48856560001149774,None,312.76093370001763,312.76830369996605,312.76830369996605,312.97519319999265,313.1834422000102,313.1779580999864,313.17799659998855,313.1834422000102,,313.8784579000203,,,,,,,,,,,,,,,,,,,,,,,,,,,,,,,,,,,,,,,,,,,,,,,,,,,,,,,,,,,,,,sub107,percept,1,0,2024-08-11_14h41.10.919,ASRT_percept,2023.2.3,144.89057868311625,2024-08-11 15h08.17.340512 +0800,
,3,270,0,4,red,sequences/sub107_practice_sequence_00.csv,,,,,,,,,,,0,0,0,0,0,55,55,61,,,,,,,,,,,,,,,,,,,,,313.8877664000029,,,,,,,,,,,,,313.87919120001607,313.8877664000029,313.8877664000029,314.0935603000107,314.49279380001826,4,1,0.5964753000298515,None,314.49343079997925,314.5003377000103,314.5003377000103,314.70465029997285,314.9125010999851,314.90756939997664,314.90761180000845,314.9125010999851,315.6139983999892,315.6078182000201,,,,,,,,,,,,,,,,,,,,,,,,,,,,,,,,,,,,,,,,,,,,,,,,,,,,,,,,,,,,,,sub107,percept,1,0,2024-08-11_14h41.10.919,ASRT_percept,2023.2.3,144.89057868311625,2024-08-11 15h08.17.340512 +0800,
,2,180,3,1,red,sequences/sub107_practice_sequence_00.csv,,,,,,,,,,,0,0,0,0,0,56,56,38,,,,,,,,,,,,,,,,,,,,,315.6139983999892,,,,,,,,,,,,,315.60839639999904,315.6139983999892,315.6139983999892,315.8153069000109,316.29853199998615,1,1,0.6757929000305012,None,316.29917600000044,316.3051368999877,316.3051368999877,316.50973619997967,316.71828239999013,316.712331000017,316.7123760000104,316.71828239999013,,317.41373540001223,,,,,,,,,,,,,,,,,,,,,,,,,,,,,,,,,,,,,,,,,,,,,,,,,,,,,,,,,,,,,,sub107,percept,1,0,2024-08-11_14h41.10.919,ASRT_percept,2023.2.3,144.89057868311625,2024-08-11 15h08.17.340512 +0800,
,2,180,3,1,red,sequences/sub107_practice_sequence_00.csv,,,,,,,,,,,0,0,0,0,0,57,57,67,,,,,,,,,,,,,,,,,,,,,317.4213200000231,,,,,,,,,,,,,317.4143747999915,317.4213200000231,317.4213200000231,317.62113529996714,317.9517767999787,1,1,0.522680499998387,None,317.95254739996744,317.95849350001663,317.95849350001663,318.1630109999678,318.371384500002,318.3660550999921,318.3661117000156,318.371384500002,,319.0664344999823,,,,,,,,,,,,,,,,,,,,,,,,,,,,,,,,,,,,,,,,,,,,,,,,,,,,,,,,,,,,,,sub107,percept,1,0,2024-08-11_14h41.10.919,ASRT_percept,2023.2.3,144.89057868311625,2024-08-11 15h08.17.340512 +0800,
,1,90,2,2,red,sequences/sub107_practice_sequence_00.csv,,,,,,,,,,,0,0,0,0,0,58,58,30,,,,,,,,,,,,,,,,,,,,,319.0726315000211,,,,,,,,,,,,,319.06717479997315,319.0726315000211,319.0726315000211,319.2744724000222,319.84862940001767,2,1,0.7649838000070304,None,319.8499520000187,319.85758680000436,319.85758680000436,320.0584281000192,320.2677729999996,320.26127780001843,320.2613344999845,320.2677729999996,,320.96169879997615,,,,,,,,,,,,,,,,,,,,,,,,,,,,,,,,,,,,,,,,,,,,,,,,,,,,,,,,,,,,,,sub107,percept,1,0,2024-08-11_14h41.10.919,ASRT_percept,2023.2.3,144.89057868311625,2024-08-11 15h08.17.340512 +0800,
,0,0,1,3,red,sequences/sub107_practice_sequence_00.csv,,,,,,,,,,,0,0,0,0,0,59,59,72,,,,,,,,,,,,,,,,,,,,,320.9681469000061,,,,,,,,,,,,,320.96237560000736,320.9681469000061,320.9681469000061,321.1695481999777,321.5963494000025,3,1,0.620019499969203,None,321.59692619997077,321.6044227000093,321.6044227000093,321.81209189997753,322.01649890001863,322.0112659999868,322.01130670000566,322.01649890001863,,322.7120410000207,,,,,,,,,,,,,,,,,,,,,,,,,,,,,,,,,,,,,,,,,,,,,,,,,,,,,,,,,,,,,,sub107,percept,1,0,2024-08-11_14h41.10.919,ASRT_percept,2023.2.3,144.89057868311625,2024-08-11 15h08.17.340512 +0800,
,3,270,0,4,red,sequences/sub107_practice_sequence_00.csv,,,,,,,,,,,0,0,0,0,0,60,60,78,,,,,,,,,,,,,,,,,,,,,322.7208974999958,,,,,,,,,,,,,322.7127429000102,322.7208974999958,322.7208974999958,322.92654820001917,323.2276199000189,4,1,0.5001746999914758,None,323.2284611000214,323.23590209998656,323.23590209998656,323.44005709997145,323.6487519000075,323.64247189997695,323.64250710001215,323.6487519000075,,324.3429758999846,,,,,,,,,,,,,,,,,,,,,,,,,,,,,,,,,,,,,,,,,,,,,,,,,,,,,,,,,,,,,,sub107,percept,1,0,2024-08-11_14h41.10.919,ASRT_percept,2023.2.3,144.89057868311625,2024-08-11 15h08.17.340512 +0800,
,3,270,0,4,red,sequences/sub107_practice_sequence_00.csv,,,,,,,,,,,0,0,0,0,0,61,61,52,,,,,,,,,,,,,,,,,,,,,324.3499980000197,,,,,,,,,,,,,324.34358089999296,324.3499980000197,324.3499980000197,324.551733899978,324.900347399991,4,1,0.5452263000188395,None,324.9009467000142,324.90845450002234,324.90845450002234,325.11405939998804,325.32234159996733,325.3165446000057,325.3165893999976,325.32234159996733,,326.017645600019,,,,,,,,,,,,,,,,,,,,,,,,,,,,,,,,,,,,,,,,,,,,,,,,,,,,,,,,,,,,,,sub107,percept,1,0,2024-08-11_14h41.10.919,ASRT_percept,2023.2.3,144.89057868311625,2024-08-11 15h08.17.340512 +0800,
,3,270,0,4,red,sequences/sub107_practice_sequence_00.csv,,,,,,,,,,,0,0,0,0,0,62,62,31,,,,,,,,,,,,,,,,,,,,,326.024253999989,,,,,,,,,,,,,326.01839889999246,326.024253999989,326.024253999989,326.22514689998934,326.477499599976,4,1,0.449539499997627,None,326.47819489997346,326.48457049997523,326.48457049997523,326.6908150999807,326.89872220001416,326.89249930001097,326.8925362000009,326.89872220001416,,327.593633099983,,,,,,,,,,,,,,,,,,,,,,,,,,,,,,,,,,,,,,,,,,,,,,,,,,,,,,,,,,,,,,sub107,percept,1,0,2024-08-11_14h41.10.919,ASRT_percept,2023.2.3,144.89057868311625,2024-08-11 15h08.17.340512 +0800,
,3,270,0,4,red,sequences/sub107_practice_sequence_00.csv,,,,,,,,,,,0,0,0,0,0,63,63,65,,,,,,,,,,,,,,,,,,,,,327.60104129998945,,,,,,,,,,,,,327.59443290001946,327.60104129998945,327.60104129998945,327.80146930000046,328.03334889997495,4,1,0.4262347999610938,None,328.0341341000167,328.04168349999236,328.04168349999236,328.24578080000356,328.4539427999989,328.44935939996503,328.4494055999676,328.4539427999989,329.1558825999964,329.1497484999709,,,,,,,,,,,,,,,,,,,,,,,,,,,,,,,,,,,,,,,,,,,,,,,,,,,,,,,,,,,,,,sub107,percept,1,0,2024-08-11_14h41.10.919,ASRT_percept,2023.2.3,144.89057868311625,2024-08-11 15h08.17.340512 +0800,
,0,0,1,3,red,sequences/sub107_practice_sequence_00.csv,,,,,,,,,,,0,0,0,0,0,64,64,81,,,,,,,,,,,,,,,,,,,,,329.1558825999964,,,,,,,,,,,,,329.15033330000006,329.1558825999964,329.1558825999964,329.3571410999866,329.79209960001754,2,0,0.6269387999782339,None,329.79284940002253,329.8072757999762,329.8072757999762,330.0024431999773,330.21120409999276,330.2056422000169,330.20568730001105,330.21120409999276,,330.90617999999085,,,,,,,,,,,,,,,,,,,,,,,,,,,,,,,,,,,,,,,,,,,,,,,,,,,,,,,,,,,,,,sub107,percept,1,0,2024-08-11_14h41.10.919,ASRT_percept,2023.2.3,144.89057868311625,2024-08-11 15h08.17.340512 +0800,
,1,90,2,2,red,sequences/sub107_practice_sequence_00.csv,,,,,,,,,,,0,0,0,0,0,65,65,9,,,,,,,,,,,,,,,,,,,,,330.91232860001037,,,,,,,,,,,,,330.90690699999686,330.91232860001037,330.91232860001037,331.11352279997664,331.53397629997926,2,1,0.6166204999899492,None,331.53464440000243,331.5406451000017,331.5406451000017,331.74562559998594,331.9542760999757,331.9485840999987,331.94862949999515,331.9542760999757,,332.6493220999837,,,,,,,,,,,,,,,,,,,,,,,,,,,,,,,,,,,,,,,,,,,,,,,,,,,,,,,,,,,,,,sub107,percept,1,0,2024-08-11_14h41.10.919,ASRT_percept,2023.2.3,144.89057868311625,2024-08-11 15h08.17.340512 +0800,
,2,180,3,1,red,sequences/sub107_practice_sequence_00.csv,,,,,,,,,,,0,0,0,0,0,66,66,3,,,,,,,,,,,,,,,,,,,,,332.65704179997556,,,,,,,,,,,,,332.6500990000204,332.65704179997556,332.65704179997556,332.85705589997815,333.2272129000048,1,1,0.5672713999520056,None,333.2279640000197,333.23746380000375,333.23746380000375,333.4402272999869,333.6482539999997,333.64330290001817,333.6433535999968,333.6482539999997,334.3507371000014,334.3440511000226,,,,,,,,,,,,,,,,,,,,,,,,,,,,,,,,,,,,,,,,,,,,,,,,,,,,,,,,,,,,,,sub107,percept,1,0,2024-08-11_14h41.10.919,ASRT_percept,2023.2.3,144.89057868311625,2024-08-11 15h08.17.340512 +0800,
,1,90,2,2,red,sequences/sub107_practice_sequence_00.csv,,,,,,,,,,,0,0,0,0,0,67,67,46,,,,,,,,,,,,,,,,,,,,,334.3507371000014,,,,,,,,,,,,,334.34479279996594,334.3507371000014,334.3507371000014,334.5521033999976,335.22778349998407,2,1,0.8742383000208065,None,335.2284384999657,335.23535420000553,335.23535420000553,335.4400555000175,335.6488615999697,335.64277390000643,335.6428184999968,335.6488615999697,,336.3431825999869,,,,,,,,,,,,,,,,,,,,,,,,,,,,,,,,,,,,,,,,,,,,,,,,,,,,,,,,,,,,,,sub107,percept,1,0,2024-08-11_14h41.10.919,ASRT_percept,2023.2.3,144.89057868311625,2024-08-11 15h08.17.340512 +0800,
,2,180,3,1,red,sequences/sub107_practice_sequence_00.csv,,,,,,,,,,,0,0,0,0,0,68,68,17,,,,,,,,,,,,,,,,,,,,,336.3499938999885,,,,,,,,,,,,,336.3440384999849,336.3499938999885,336.3499938999885,336.5520165999769,336.9075376999681,1,1,0.5522024999954738,None,336.908253600006,336.914076999994,336.914076999994,337.12053710001055,337.32877059996827,337.3230327999918,337.3230731000076,337.32877059996827,,338.02371189999394,,,,,,,,,,,,,,,,,,,,,,,,,,,,,,,,,,,,,,,,,,,,,,,,,,,,,,,,,,,,,,sub107,percept,1,0,2024-08-11_14h41.10.919,ASRT_percept,2023.2.3,144.89057868311625,2024-08-11 15h08.17.340512 +0800,
,1,90,2,2,red,sequences/sub107_practice_sequence_00.csv,,,,,,,,,,,0,0,0,0,0,69,69,22,,,,,,,,,,,,,,,,,,,,,338.0319915,,,,,,,,,,,,,338.02441670000553,338.0319915,338.0319915,338.2317574999761,338.7896371000097,2,1,0.7513802000321448,None,338.7903540999978,338.79885899997316,338.79885899997316,339.0022419000161,339.21193089999724,339.20564719999675,339.20569919998525,339.21193089999724,339.91244579997147,339.90644679998513,,,,,,,,,,,,,,,,,,,,,,,,,,,,,,,,,,,,,,,,,,,,,,,,,,,,,,,,,,,,,,sub107,percept,1,0,2024-08-11_14h41.10.919,ASRT_percept,2023.2.3,144.89057868311625,2024-08-11 15h08.17.340512 +0800,
,1,90,2,2,red,sequences/sub107_practice_sequence_00.csv,,,,,,,,,,,0,0,0,0,0,70,70,27,,,,,,,,,,,,,,,,,,,,,339.91244579997147,,,,,,,,,,,,,339.9071280999924,339.91244579997147,339.91244579997147,340.1140643999679,340.5474268000107,2,1,0.6280914000235498,None,340.548378699983,340.55721669999184,340.55721669999184,340.75957399996696,340.96762519999174,340.9624106999836,340.96246080001583,340.96762519999174,,341.6626408000011,,,,,,,,,,,,,,,,,,,,,,,,,,,,,,,,,,,,,,,,,,,,,,,,,,,,,,,,,,,,,,sub107,percept,1,0,2024-08-11_14h41.10.919,ASRT_percept,2023.2.3,144.89057868311625,2024-08-11 15h08.17.340512 +0800,
,2,180,3,1,red,sequences/sub107_practice_sequence_00.csv,,,,,,,,,,,0,0,0,0,0,71,71,39,,,,,,,,,,,,,,,,,,,,,341.67149350000545,,,,,,,,,,,,,341.66350510000484,341.67149350000545,341.67149350000545,341.87060359999305,342.2538601999986,1,1,0.5752729999949224,None,342.25446369999554,342.260769799992,342.260769799992,342.46808389999205,342.6762143999804,342.67047770001227,342.67052849999163,342.6762143999804,,343.3707975000143,,,,,,,,,,,,,,,,,,,,,,,,,,,,,,,,,,,,,,,,,,,,,,,,,,,,,,,,,,,,,,sub107,percept,1,0,2024-08-11_14h41.10.919,ASRT_percept,2023.2.3,144.89057868311625,2024-08-11 15h08.17.340512 +0800,
,3,270,0,4,red,sequences/sub107_practice_sequence_00.csv,,,,,,,,,,,0,0,0,0,0,72,72,43,,,,,,,,,,,,,,,,,,,,,343.3775546000106,,,,,,,,,,,,,343.371754999971,343.3775546000106,343.3775546000106,343.57912920002127,343.9234957000008,4,1,0.5380663999821991,None,343.9245186999906,343.933632100001,343.933632100001,344.13514059997397,344.34275219996925,344.33679999999003,344.33683589997236,344.34275219996925,,345.03749419999076,,,,,,,,,,,,,,,,,,,,,,,,,,,,,,,,,,,,,,,,,,,,,,,,,,,,,,,,,,,,,,sub107,percept,1,0,2024-08-11_14h41.10.919,ASRT_percept,2023.2.3,144.89057868311625,2024-08-11 15h08.17.340512 +0800,
,0,0,1,3,red,sequences/sub107_practice_sequence_00.csv,,,,,,,,,,,0,0,0,0,0,73,73,47,,,,,,,,,,,,,,,,,,,,,345.0440763999941,,,,,,,,,,,,,345.0380713000195,345.0440763999941,345.0440763999941,345.2454393999651,345.5351158999838,3,1,0.4862647000118159,None,345.5358963999897,345.54263739997987,345.54263739997987,345.7450755999889,345.95350619999226,345.94806520000566,345.94810609996784,345.95350619999226,,346.6485690000118,,,,,,,,,,,,,,,,,,,,,,,,,,,,,,,,,,,,,,,,,,,,,,,,,,,,,,,,,,,,,,sub107,percept,1,0,2024-08-11_14h41.10.919,ASRT_percept,2023.2.3,144.89057868311625,2024-08-11 15h08.17.340512 +0800,
