initial_random_seq_files,orientation_index,orientation_degrees,correct_answer_index,correct_answer_direction,arrow_color,practice_seq_files,learning_seq_files,percept_testing_seq_files,init_random_block.thisRepN,init_random_block.thisTrialN,init_random_block.thisN,init_random_block.thisIndex,init_random_trials.thisRepN,init_random_trials.thisTrialN,init_random_trials.thisN,init_random_trials.thisIndex,practice_blocks.thisRepN,practice_blocks.thisTrialN,practice_blocks.thisN,practice_blocks.thisIndex,practice_trials.thisRepN,practice_trials.thisTrialN,practice_trials.thisN,practice_trials.thisIndex,learning_trials.thisRepN,learning_trials.thisTrialN,learning_trials.thisN,learning_trials.thisIndex,learning_loop.thisRepN,learning_loop.thisTrialN,learning_loop.thisN,learning_loop.thisIndex,trials.thisRepN,trials.thisTrialN,trials.thisN,trials.thisIndex,percept_testing_trials.thisRepN,percept_testing_trials.thisTrialN,percept_testing_trials.thisN,percept_testing_trials.thisIndex,percept_testing_loop.thisRepN,percept_testing_loop.thisTrialN,percept_testing_loop.thisN,percept_testing_loop.thisIndex,thisRow.t,notes,welcomescreen.started,spaceship.started,welcometext.started,welcome_end.started,welcomescreen.stopped,welcome_end.keys,welcome_end.rt,welcome_end.duration,pre_section.started,fixation_init.started,pre_section.stopped,trial.started,arrowhead.started,key_resp.started,arrowhead.stopped,trial.stopped,key_resp.keys,key_resp.corr,key_resp.rt,key_resp.duration,fixation_feedback.started,cross.started,feedback_text.started,cross.stopped,feedback_text.stopped,fixation_feedback.stopped,RSI.started,text_2.started,RSI.stopped,text_2.stopped,post_section.started,feedback_post_section.started,key_resp_4.started,feedback_post_section.stopped,post_section.stopped,key_resp_4.keys,key_resp_4.rt,key_resp_4.duration,pratice_instruction.started,spaceship_rotated.started,rotation_instruction.started,key_resp_2.started,pratice_instruction.stopped,key_resp_2.keys,key_resp_2.rt,key_resp_2.duration,fixation_init.stopped,learning_instruction.started,spaceship_rotated01.started,rotation_instruction01.started,key_resp_02.started,learning_instruction.stopped,key_resp_02.keys,key_resp_02.rt,key_resp_02.duration,seqreport_instruction.started,seqreport_instruction_text.started,seqreport_instruction_key.started,seqreport_instruction.stopped,seqreport_instruction_key.keys,seqreport_instruction_key.rt,seqreport_instruction_key.duration,seqreport.started,seq_report_key.started,seqreport.stopped,seq_report_key.keys,seq_report_key.rt,seq_report_key.duration,seqarrow.started,arrow_report.started,seqarrow.stopped,arrow_report.stopped,percept_testing_instruction.started,spaceship4.started,key_resp_5.started,percept_testing_instruction_text.started,percept_testing_instruction.stopped,key_resp_5.keys,key_resp_5.rt,key_resp_5.duration,fixation.started,cross_2.started,cross_2.stopped,fixation.stopped,participant,learning_type,seqID,debug,date,expName,psychopyVersion,frameRate,expStart,V141,key_resp.stopped,V99
"",,,,,"","","","",,,,,,,,,,,,,,,,,,,,,,,,,,,,,,,,,,,,,,,0.0101679999997941,0.0187406999993982,0.0187406999993982,0.0187406999993982,4.94821189999948,space,4.92582940000011,None,,,,,,,,,"",,,"",,,,,,,,,,,,,,,,"",,"",,,,,,"",,"",,,,,,,"",,"",,,,,"",,"",,,,,,"",,,,,,,,,,"",,"",,,,,sub103,percept,6,0,2024-08-07_15h04.46.095,ASRT_percept,2023.2.3,141.156011269011,2024-08-07 15h05.17.327586 +0800,,,
sequences/sub103_initial_random.csv,3,270,3,1,red,"","","",0,0,0,0,0,0,0,0,,,,,,,,,,,,,,,,,,,,,,,,,,,,,5.98646439999993,,,,,,,"",,"",4.96635009999955,4.96903039999961,5.95735359999981,5.98186389999955,5.98646439999993,5.98646439999993,6.1906756999997,6.53401329999997,1,1,0.544806300000346,None,6.53527619999932,6.54428999999982,6.54428999999982,6.74589289999949,6.95384139999987,6.94853969999986,6.94858229999954,6.95384139999987,7.64888979999978,,,,,,,"",,"",,,,,,"",,"",,,,,,,"",,"",,,,,"",,"",,,,,,"",,,,,,,,,,"",,"",,,,,sub103,percept,6,0,2024-08-07_15h04.46.095,ASRT_percept,2023.2.3,141.156011269011,2024-08-07 15h05.17.327586 +0800,,,
sequences/sub103_initial_random.csv,0,0,0,4,red,"","","",0,0,0,0,0,1,1,1,,,,,,,,,,,,,,,,,,,,,,,,,,,,,7.65680799999973,,,,,,,"",,"",,,,7.6494874,7.65680799999973,7.65680799999973,7.85700199999974,8.10232939999969,4,1,0.439578000000438,None,8.10303169999952,8.10891919999995,8.10891919999995,8.31515859999945,8.52385689999937,8.51829499999985,8.51833790000001,8.52385689999937,9.21857469999941,,,,,,,"",,"",,,,,,"",,"",,,,,,,"",,"",,,,,"",,"",,,,,,"",,,,,,,,,,"",,"",,,,,sub103,percept,6,0,2024-08-07_15h04.46.095,ASRT_percept,2023.2.3,141.156011269011,2024-08-07 15h05.17.327586 +0800,,,
sequences/sub103_initial_random.csv,3,270,3,1,red,"","","",0,0,0,0,0,2,2,2,,,,,,,,,,,,,,,,,,,,,,,,,,,,,9.22495809999964,,,,,,,"",,"",,,,9.21928389999994,9.22495809999964,9.22495809999964,9.42678179999984,9.6298485999996,1,1,0.399871700000404,None,9.6306211000001,9.63638149999952,9.63638149999952,9.8430757999995,10.0520382999994,10.0461882,10.0462409000002,10.0520382999994,10.7465696999998,,,,,,,"",,"",,,,,,"",,"",,,,,,,"",,"",,,,,"",,"",,,,,,"",,,,,,,,,,"",,"",,,,,sub103,percept,6,0,2024-08-07_15h04.46.095,ASRT_percept,2023.2.3,141.156011269011,2024-08-07 15h05.17.327586 +0800,,,
sequences/sub103_initial_random.csv,3,270,3,1,red,"","","",0,0,0,0,0,3,3,3,,,,,,,,,,,,,,,,,,,,,,,,,,,,,10.7540396999993,,,,,,,"",,"",,,,10.7472692000001,10.7540396999993,10.7540396999993,10.9540855999994,11.1176835999995,1,1,0.360539899999822,None,11.1184470999997,11.1239962,11.1239962,11.3291849999996,11.5370269999994,11.5319415999993,11.5319878,11.5370269999994,12.2334446999994,,,,,,,"",,"",,,,,,"",,"",,,,,,,"",,"",,,,,"",,"",,,,,,"",,,,,,,,,,"",,"",,,,,sub103,percept,6,0,2024-08-07_15h04.46.095,ASRT_percept,2023.2.3,141.156011269011,2024-08-07 15h05.17.327586 +0800,,,
sequences/sub103_initial_random.csv,1,90,1,3,red,"","","",0,0,0,0,0,4,4,4,,,,,,,,,,,,,,,,,,,,,,,,,,,,,12.2423701999996,,,,,,,"",,"",,,,12.2341538999999,12.2423701999996,12.2423701999996,12.4471843000001,12.5641387999995,4,0,0.316133399999671,None,12.5650194999998,12.5838743999993,12.5838743999993,12.7803773999995,12.9939777999998,12.9855016000001,12.9855598999993,12.9939777999998,13.6905354,,,,,,,"",,"",,,,,,"",,"",,,,,,,"",,"",,,,,"",,"",,,,,,"",,,,,,,,,,"",,"",,,,,sub103,percept,6,0,2024-08-07_15h04.46.095,ASRT_percept,2023.2.3,141.156011269011,2024-08-07 15h05.17.327586 +0800,,,
sequences/sub103_initial_random.csv,3,270,3,1,red,"","","",0,0,0,0,0,5,5,5,,,,,,,,,,,,,,,,,,,,,,,,,,,,,13.6982079999998,,,,,,,"",,"",,,,13.6911401999996,13.6982079999998,13.6982079999998,13.8986605,14.0258454999994,1,1,0.322027100000014,None,14.0264778000001,14.0350570000001,14.0350570000001,14.2386256999998,14.4470697999996,14.4413754999996,14.4414190999996,14.4470697999996,15.1417597,,,,,,,"",,"",,,,,,"",,"",,,,,,,"",,"",,,,,"",,"",,,,,,"",,,,,,,,,,"",,"",,,,,sub103,percept,6,0,2024-08-07_15h04.46.095,ASRT_percept,2023.2.3,141.156011269011,2024-08-07 15h05.17.327586 +0800,,,
sequences/sub103_initial_random.csv,2,180,2,2,red,"","","",0,0,0,0,0,6,6,6,,,,,,,,,,,,,,,,,,,,,,,,,,,,,15.1489960999998,,,,,,,"",,"",,,,15.1423582999996,15.1489960999998,15.1489960999998,15.3500955,15.5051801999998,2,1,0.351630000000114,None,15.5060819999999,15.5122271999999,15.5122271999999,15.7178045999999,15.9261591999993,15.9207798999996,15.9208236999993,15.9261591999993,16.6209459000002,,,,,,,"",,"",,,,,,"",,"",,,,,,,"",,"",,,,,"",,"",,,,,,"",,,,,,,,,,"",,"",,,,,sub103,percept,6,0,2024-08-07_15h04.46.095,ASRT_percept,2023.2.3,141.156011269011,2024-08-07 15h05.17.327586 +0800,,,
sequences/sub103_initial_random.csv,2,180,2,2,red,"","","",0,0,0,0,0,7,7,7,,,,,,,,,,,,,,,,,,,,,,,,,,,,,16.6276969999999,,,,,,,"",,"",,,,16.6215574999997,16.6276969999999,16.6276969999999,16.8290405999996,17.1101098999998,2,1,0.478411199999755,None,17.1108816999995,17.1189303000001,17.1189303000001,17.3219770999995,17.5309223999993,17.5248597,17.5249108999997,17.5309223999993,18.2258512999997,18.2318337999996,,,,,,"",,"",,,,,,"",,"",,,,,,,"",,"",,,,,"",,"",,,,,,"",,,,,,,,,,"",,"",,,,,sub103,percept,6,0,2024-08-07_15h04.46.095,ASRT_percept,2023.2.3,141.156011269011,2024-08-07 15h05.17.327586 +0800,,,
sequences/sub103_initial_random.csv,2,180,2,2,red,"","","",0,0,0,0,0,8,8,8,,,,,,,,,,,,,,,,,,,,,,,,,,,,,18.2318337999996,,,,,,,"",,"",,,,18.2264460999995,18.2318337999996,18.2318337999996,18.4331081,18.6302436999995,2,1,0.390877400000136,None,18.6310255999997,18.6393014999994,18.6393014999994,18.8427703999996,19.0510070999999,19.0452483999998,19.0452907999997,19.0510070999999,19.7459013999996,,,,,,,"",,"",,,,,,"",,"",,,,,,,"",,"",,,,,"",,"",,,,,,"",,,,,,,,,,"",,"",,,,,sub103,percept,6,0,2024-08-07_15h04.46.095,ASRT_percept,2023.2.3,141.156011269011,2024-08-07 15h05.17.327586 +0800,,,
sequences/sub103_initial_random.csv,0,0,0,4,red,"","","",0,0,0,0,0,9,9,9,,,,,,,,,,,,,,,,,,,,,,,,,,,,,19.7536843999997,,,,,,,"",,"",,,,19.7466661999997,19.7536843999997,19.7536843999997,19.9539832999999,20.1454448999993,4,1,0.382765399999698,None,20.1461441000001,20.1522446999998,20.1522446999998,20.3562338000002,20.5648568999995,20.5592784,20.5593204999996,20.5648568999995,21.2598928999996,,,,,,,"",,"",,,,,,"",,"",,,,,,,"",,"",,,,,"",,"",,,,,,"",,,,,,,,,,"",,"",,,,,sub103,percept,6,0,2024-08-07_15h04.46.095,ASRT_percept,2023.2.3,141.156011269011,2024-08-07 15h05.17.327586 +0800,,,
sequences/sub103_initial_random.csv,0,0,0,4,red,"","","",0,0,0,0,0,10,10,10,,,,,,,,,,,,,,,,,,,,,,,,,,,,,21.2681923,,,,,,,"",,"",,,,21.2607572999996,21.2681923,21.2681923,21.4677464999995,21.6646637999993,4,1,0.389028000000508,None,21.6653624999999,21.6731399999999,21.6731399999999,21.8775366,22.0859065999994,22.0797082999998,22.0797512999998,22.0859065999994,22.7807235999999,,,,,,,"",,"",,,,,,"",,"",,,,,,,"",,"",,,,,"",,"",,,,,,"",,,,,,,,,,"",,"",,,,,sub103,percept,6,0,2024-08-07_15h04.46.095,ASRT_percept,2023.2.3,141.156011269011,2024-08-07 15h05.17.327586 +0800,,,
sequences/sub103_initial_random.csv,0,0,0,4,red,"","","",0,0,0,0,0,11,11,11,,,,,,,,,,,,,,,,,,,,,,,,,,,,,22.7871076000001,,,,,,,"",,"",,,,22.7814938000001,22.7871076000001,22.7871076000001,22.9885528999994,23.1997034999995,4,1,0.40781909999987,None,23.2004539999998,23.2064827999993,23.2064827999993,23.4122368999997,23.6203716999999,23.6146350999998,23.6146782999995,23.6203716999999,24.3156750999997,,,,,,,"",,"",,,,,,"",,"",,,,,,,"",,"",,,,,"",,"",,,,,,"",,,,,,,,,,"",,"",,,,,sub103,percept,6,0,2024-08-07_15h04.46.095,ASRT_percept,2023.2.3,141.156011269011,2024-08-07 15h05.17.327586 +0800,,,
sequences/sub103_initial_random.csv,0,0,0,4,red,"","","",0,0,0,0,0,12,12,12,,,,,,,,,,,,,,,,,,,,,,,,,,,,,24.3223613,,,,,,,"",,"",,,,24.3164387999996,24.3223613,24.3223613,24.5237547999996,24.7284081999997,4,1,0.402865600000041,None,24.7291219999997,24.7361754999993,24.7361754999993,24.9400656999997,25.1482299999998,25.1431149999999,25.1431668999994,25.1482299999998,25.8440971999999,25.8550151,,,,,,"",,"",,,,,,"",,"",,,,,,,"",,"",,,,,"",,"",,,,,,"",,,,,,,,,,"",,"",,,,,sub103,percept,6,0,2024-08-07_15h04.46.095,ASRT_percept,2023.2.3,141.156011269011,2024-08-07 15h05.17.327586 +0800,,,
sequences/sub103_initial_random.csv,2,180,2,2,red,"","","",0,0,0,0,0,13,13,13,,,,,,,,,,,,,,,,,,,,,,,,,,,,,25.8550151,,,,,,,"",,"",,,,25.8448154999996,25.8550151,25.8550151,26.0582838999999,26.2057221999994,2,1,0.345564100000047,None,26.2063013999996,26.211319,26.211319,26.4189456999993,26.6274353999997,26.6219080000001,26.6219510999999,26.6274353999997,27.3220959999999,,,,,,,"",,"",,,,,,"",,"",,,,,,,"",,"",,,,,"",,"",,,,,,"",,,,,,,,,,"",,"",,,,,sub103,percept,6,0,2024-08-07_15h04.46.095,ASRT_percept,2023.2.3,141.156011269011,2024-08-07 15h05.17.327586 +0800,,,
sequences/sub103_initial_random.csv,0,0,0,4,red,"","","",0,0,0,0,0,14,14,14,,,,,,,,,,,,,,,,,,,,,,,,,,,,,27.3291737999998,,,,,,,"",,"",,,,27.3228134999999,27.3291737999998,27.3291737999998,27.5305085999999,27.6800286999996,4,1,0.348038199999792,None,27.6808498,27.6865911999994,27.6865911999994,27.8915286000001,28.1008090999994,28.0944375999998,28.0944952,28.1008090999994,28.7946833999995,,,,,,,"",,"",,,,,,"",,"",,,,,,,"",,"",,,,,"",,"",,,,,,"",,,,,,,,,,"",,"",,,,,sub103,percept,6,0,2024-08-07_15h04.46.095,ASRT_percept,2023.2.3,141.156011269011,2024-08-07 15h05.17.327586 +0800,,,
sequences/sub103_initial_random.csv,1,90,1,3,red,"","","",0,0,0,0,0,15,15,15,,,,,,,,,,,,,,,,,,,,,,,,,,,,,28.8019971999993,,,,,,,"",,"",,,,28.7954310999994,28.8019971999993,28.8019971999993,29.0029324999996,29.1515645999998,3,1,0.346433499999876,None,29.1522861999993,29.1584462999999,29.1584462999999,29.3635697999998,29.5724006,29.5659527999997,29.5659944999998,29.5724006,30.2666448,,,,,,,"",,"",,,,,,"",,"",,,,,,,"",,"",,,,,"",,"",,,,,,"",,,,,,,,,,"",,"",,,,,sub103,percept,6,0,2024-08-07_15h04.46.095,ASRT_percept,2023.2.3,141.156011269011,2024-08-07 15h05.17.327586 +0800,,,
sequences/sub103_initial_random.csv,2,180,2,2,red,"","","",0,0,0,0,0,16,16,16,,,,,,,,,,,,,,,,,,,,,,,,,,,,,30.2738639999998,,,,,,,"",,"",,,,30.2673814999998,30.2738639999998,30.2738639999998,30.4747447999998,30.7339437000001,2,1,0.453367699999944,None,30.7346467999996,30.7408550999999,30.7408550999999,30.9465841000001,31.1549467999994,31.149735,31.1497779000001,31.1549467999994,31.8501097999997,,,,,,,"",,"",,,,,,"",,"",,,,,,,"",,"",,,,,"",,"",,,,,,"",,,,,,,,,,"",,"",,,,,sub103,percept,6,0,2024-08-07_15h04.46.095,ASRT_percept,2023.2.3,141.156011269011,2024-08-07 15h05.17.327586 +0800,,,
sequences/sub103_initial_random.csv,3,270,3,1,red,"","","",0,0,0,0,0,17,17,17,,,,,,,,,,,,,,,,,,,,,,,,,,,,,31.8572221999993,,,,,,,"",,"",,,,31.8508287999994,31.8572221999993,31.8572221999993,32.0579050999995,32.2444166999994,1,1,0.37725539999974,None,32.2452081000001,32.2533438999999,32.2533438999999,32.4534897999993,32.6617731999995,32.6558824999993,32.6559221999996,32.6617731999995,33.3567863999997,,,,,,,"",,"",,,,,,"",,"",,,,,,,"",,"",,,,,"",,"",,,,,,"",,,,,,,,,,"",,"",,,,,sub103,percept,6,0,2024-08-07_15h04.46.095,ASRT_percept,2023.2.3,141.156011269011,2024-08-07 15h05.17.327586 +0800,,,
sequences/sub103_initial_random.csv,1,90,1,3,red,"","","",0,0,0,0,0,18,18,18,,,,,,,,,,,,,,,,,,,,,,,,,,,,,33.3644100000001,,,,,,,"",,"",,,,33.3574431999996,33.3644100000001,33.3644100000001,33.5651521,33.7824800999997,3,1,0.40992340000048,None,33.7831392999997,33.7892848000001,33.7892848000001,33.9955506999995,34.2045720999995,34.1987856999995,34.1988377999996,34.2045720999995,34.9005211999993,34.9095950999999,,,,,,"",,"",,,,,,"",,"",,,,,,,"",,"",,,,,"",,"",,,,,,"",,,,,,,,,,"",,"",,,,,sub103,percept,6,0,2024-08-07_15h04.46.095,ASRT_percept,2023.2.3,141.156011269011,2024-08-07 15h05.17.327586 +0800,,,
sequences/sub103_initial_random.csv,0,0,0,4,red,"","","",0,0,0,0,0,19,19,19,,,,,,,,,,,,,,,,,,,,,,,,,,,,,34.9095950999999,,,,,,,"",,"",,,,34.9015816000001,34.9095950999999,34.9095950999999,35.1135740999998,35.247582,4,1,0.330929900000228,None,35.2482654999994,35.2546226999993,35.2546226999993,35.4611721000001,35.6720452,35.6660191000001,35.6660661999995,35.6720452,36.3707427999998,,,,,,,"",,"",,,,,,"",,"",,,,,,,"",,"",,,,,"",,"",,,,,,"",,,,,,,,,,"",,"",,,,,sub103,percept,6,0,2024-08-07_15h04.46.095,ASRT_percept,2023.2.3,141.156011269011,2024-08-07 15h05.17.327586 +0800,,,
sequences/sub103_initial_random.csv,2,180,2,2,red,"","","",0,0,0,0,0,20,20,20,,,,,,,,,,,,,,,,,,,,,,,,,,,,,36.3767502999999,,,,,,,"",,"",,,,36.3715293999994,36.3767502999999,36.3767502999999,36.5785839,36.6919189,2,1,0.311234799999511,None,36.6926311999996,36.6991764999993,36.6991764999993,36.9047520999993,37.1130863999997,37.1067107999997,37.1067419000001,37.1130863999997,37.8084444999995,,,,,,,"",,"",,,,,,"",,"",,,,,,,"",,"",,,,,"",,"",,,,,,"",,,,,,,,,,"",,"",,,,,sub103,percept,6,0,2024-08-07_15h04.46.095,ASRT_percept,2023.2.3,141.156011269011,2024-08-07 15h05.17.327586 +0800,,,
sequences/sub103_initial_random.csv,3,270,3,1,red,"","","",0,0,0,0,0,21,21,21,,,,,,,,,,,,,,,,,,,,,,,,,,,,,37.8156381999997,,,,,,,"",,"",,,,37.8095330999995,37.8156381999997,37.8156381999997,38.0164286999998,38.1640256999999,1,1,0.34374040000057,None,38.1646090999993,38.1708312999999,38.1708312999999,38.3772109000001,38.5858048,38.5803243999999,38.5803823999995,38.5858048,39.2816844999998,39.2892070999997,,,,,,"",,"",,,,,,"",,"",,,,,,,"",,"",,,,,"",,"",,,,,,"",,,,,,,,,,"",,"",,,,,sub103,percept,6,0,2024-08-07_15h04.46.095,ASRT_percept,2023.2.3,141.156011269011,2024-08-07 15h05.17.327586 +0800,,,
sequences/sub103_initial_random.csv,0,0,0,4,red,"","","",0,0,0,0,0,22,22,22,,,,,,,,,,,,,,,,,,,,,,,,,,,,,39.2892070999997,,,,,,,"",,"",,,,39.2823780999997,39.2892070999997,39.2892070999997,39.4959695999996,39.6360170999997,4,1,0.339640099999997,None,39.6367418,39.6425190999998,39.6425190999998,39.8493423,40.0581293999994,40.0521104999998,40.0521558999999,40.0581293999994,40.752888,,,,,,,"",,"",,,,,,"",,"",,,,,,,"",,"",,,,,"",,"",,,,,,"",,,,,,,,,,"",,"",,,,,sub103,percept,6,0,2024-08-07_15h04.46.095,ASRT_percept,2023.2.3,141.156011269011,2024-08-07 15h05.17.327586 +0800,,,
sequences/sub103_initial_random.csv,1,90,1,3,red,"","","",0,0,0,0,0,23,23,23,,,,,,,,,,,,,,,,,,,,,,,,,,,,,40.7610449999993,,,,,,,"",,"",,,,40.7537015999997,40.7610449999993,40.7610449999993,40.9602772999997,41.1089400000001,3,1,0.342272900000353,None,41.1096270999997,41.1175812000001,41.1175812000001,41.3215657999999,41.5296811999997,41.5240371,41.5240797999995,41.5296811999997,42.2241558999995,,,,,,,"",,"",,,,,,"",,"",,,,,,,"",,"",,,,,"",,"",,,,,,"",,,,,,,,,,"",,"",,,,,sub103,percept,6,0,2024-08-07_15h04.46.095,ASRT_percept,2023.2.3,141.156011269011,2024-08-07 15h05.17.327586 +0800,,,
sequences/sub103_initial_random.csv,1,90,1,3,red,"","","",0,0,0,0,0,24,24,24,,,,,,,,,,,,,,,,,,,,,,,,,,,,,42.2307577000001,,,,,,,"",,"",,,,42.2247235999994,42.2307577000001,42.2307577000001,42.4330252,42.6177116999997,3,1,0.382039099999929,None,42.6185490999997,42.6246154,42.6246154,42.8286122,43.0366574,43.0312610999999,43.0314768999997,43.0366574,43.7319381999996,43.7375679999996,,,,,,"",,"",,,,,,"",,"",,,,,,,"",,"",,,,,"",,"",,,,,,"",,,,,,,,,,"",,"",,,,,sub103,percept,6,0,2024-08-07_15h04.46.095,ASRT_percept,2023.2.3,141.156011269011,2024-08-07 15h05.17.327586 +0800,,,
sequences/sub103_initial_random.csv,3,270,3,1,red,"","","",0,0,0,0,0,25,25,25,,,,,,,,,,,,,,,,,,,,,,,,,,,,,43.7375679999996,,,,,,,"",,"",,,,43.7325393000001,43.7375679999996,43.7375679999996,43.9394161,44.1711224999999,1,1,0.428821299999981,None,44.1719733999998,44.1770448999996,44.1770448999996,44.3841416999994,44.5920492999994,44.5865270999993,44.5865734999998,44.5920492999994,45.2868573999995,,,,,,,"",,"",,,,,,"",,"",,,,,,,"",,"",,,,,"",,"",,,,,,"",,,,,,,,,,"",,"",,,,,sub103,percept,6,0,2024-08-07_15h04.46.095,ASRT_percept,2023.2.3,141.156011269011,2024-08-07 15h05.17.327586 +0800,,,
sequences/sub103_initial_random.csv,2,180,2,2,red,"","","",0,0,0,0,0,26,26,26,,,,,,,,,,,,,,,,,,,,,,,,,,,,,45.2932574999995,,,,,,,"",,"",,,,45.2874429999993,45.2932574999995,45.2932574999995,45.4952663999993,45.8023665000001,2,1,0.505716900000152,None,45.8029545999998,45.8097650999998,45.8097650999998,46.0159911999999,46.2246588999997,46.2189297999994,46.2189822999999,46.2246588999997,46.9193597999993,,,,,,,"",,"",,,,,,"",,"",,,,,,,"",,"",,,,,"",,"",,,,,,"",,,,,,,,,,"",,"",,,,,sub103,percept,6,0,2024-08-07_15h04.46.095,ASRT_percept,2023.2.3,141.156011269011,2024-08-07 15h05.17.327586 +0800,,,
sequences/sub103_initial_random.csv,2,180,2,2,red,"","","",0,0,0,0,0,27,27,27,,,,,,,,,,,,,,,,,,,,,,,,,,,,,46.9304567999998,,,,,,,"",,"",,,,46.9201718999993,46.9304567999998,46.9304567999998,47.1338041999998,47.3594247000001,2,1,0.425236900000527,None,47.3603208999994,47.3714102999993,47.3714102999993,47.5713582999997,47.7795366999999,47.7737062999995,47.7737480999995,47.7795366999999,48.4742351999994,,,,,,,"",,"",,,,,,"",,"",,,,,,,"",,"",,,,,"",,"",,,,,,"",,,,,,,,,,"",,"",,,,,sub103,percept,6,0,2024-08-07_15h04.46.095,ASRT_percept,2023.2.3,141.156011269011,2024-08-07 15h05.17.327586 +0800,,,
sequences/sub103_initial_random.csv,2,180,2,2,red,"","","",0,0,0,0,0,28,28,28,,,,,,,,,,,,,,,,,,,,,,,,,,,,,48.4823489,,,,,,,"",,"",,,,48.4750631999996,48.4823489,48.4823489,48.6823784999997,48.8168212000001,2,1,0.326076700000158,None,48.8174427999993,48.8227530999993,48.8227530999993,49.0294927999994,49.2385600999996,49.2327767999996,49.2328281,49.2385600999996,49.9327407000001,49.9389658999999,,,,,,"",,"",,,,,,"",,"",,,,,,,"",,"",,,,,"",,"",,,,,,"",,,,,,,,,,"",,"",,,,,sub103,percept,6,0,2024-08-07_15h04.46.095,ASRT_percept,2023.2.3,141.156011269011,2024-08-07 15h05.17.327586 +0800,,,
sequences/sub103_initial_random.csv,2,180,2,2,red,"","","",0,0,0,0,0,29,29,29,,,,,,,,,,,,,,,,,,,,,,,,,,,,,49.9389658999999,,,,,,,"",,"",,,,49.9332256999997,49.9389658999999,49.9389658999999,50.1406410999998,50.3995903999994,2,1,0.455874299999778,None,50.4002714999997,50.4056100999997,50.4056100999997,50.6131773999996,50.8212954999999,50.8159554999993,50.8160021999993,50.8212954999999,51.5166774999998,,,,,,,"",,"",,,,,,"",,"",,,,,,,"",,"",,,,,"",,"",,,,,,"",,,,,,,,,,"",,"",,,,,sub103,percept,6,0,2024-08-07_15h04.46.095,ASRT_percept,2023.2.3,141.156011269011,2024-08-07 15h05.17.327586 +0800,,,
sequences/sub103_initial_random.csv,1,90,1,3,red,"","","",0,0,0,0,0,30,30,30,,,,,,,,,,,,,,,,,,,,,,,,,,,,,51.5270035999993,,,,,,,"",,"",,,,51.5176658999999,51.5270035999993,51.5270035999993,51.7313588999996,51.8664398000001,3,1,0.336351700000705,None,51.8671472999995,51.8732188999993,51.8732188999993,52.0783879999999,52.2865665999998,52.2808894999998,52.2809317000001,52.2865665999998,52.9817803999995,52.9879260999996,,,,,,"",,"",,,,,,"",,"",,,,,,,"",,"",,,,,"",,"",,,,,,"",,,,,,,,,,"",,"",,,,,sub103,percept,6,0,2024-08-07_15h04.46.095,ASRT_percept,2023.2.3,141.156011269011,2024-08-07 15h05.17.327586 +0800,,,
sequences/sub103_initial_random.csv,2,180,2,2,red,"","","",0,0,0,0,0,31,31,31,,,,,,,,,,,,,,,,,,,,,,,,,,,,,52.9879260999996,,,,,,,"",,"",,,,52.9825291999996,52.9879260999996,52.9879260999996,53.1891330999997,53.4204677999997,2,1,0.424890099999175,None,53.4210312999994,53.4272989000001,53.4272989000001,53.6338606999998,53.8417438999995,53.8361741999997,53.8362161999994,53.8417438999995,54.5403102999999,,,,,,,"",,"",,,,,,"",,"",,,,,,,"",,"",,,,,"",,"",,,,,,"",,,,,,,,,,"",,"",,,,,sub103,percept,6,0,2024-08-07_15h04.46.095,ASRT_percept,2023.2.3,141.156011269011,2024-08-07 15h05.17.327586 +0800,,,
sequences/sub103_initial_random.csv,3,270,3,1,red,"","","",0,0,0,0,0,32,32,32,,,,,,,,,,,,,,,,,,,,,,,,,,,,,54.5495148,,,,,,,"",,"",,,,54.5412560999994,54.5495148,54.5495148,54.7519794,54.9138949999997,1,1,0.36011789999975,None,54.9146154999999,54.9212370999994,54.9212370999994,55.1272614,55.3358055999997,55.3298533999996,55.3299131999993,55.3358055999997,56.0301461999998,56.0362621999993,,,,,,"",,"",,,,,,"",,"",,,,,,,"",,"",,,,,"",,"",,,,,,"",,,,,,,,,,"",,"",,,,,sub103,percept,6,0,2024-08-07_15h04.46.095,ASRT_percept,2023.2.3,141.156011269011,2024-08-07 15h05.17.327586 +0800,,,
sequences/sub103_initial_random.csv,2,180,2,2,red,"","","",0,0,0,0,0,33,33,33,,,,,,,,,,,,,,,,,,,,,,,,,,,,,56.0362621999993,,,,,,,"",,"",,,,56.0306437999998,56.0362621999993,56.0362621999993,56.2380469,56.4142892999998,2,1,0.37380850000045,None,56.4150629999995,56.4218093,56.4218093,56.6268885,56.8353706999997,56.8297140999994,56.8297655999995,56.8353706999997,57.5301003999994,57.5360468999998,,,,,,"",,"",,,,,,"",,"",,,,,,,"",,"",,,,,"",,"",,,,,,"",,,,,,,,,,"",,"",,,,,sub103,percept,6,0,2024-08-07_15h04.46.095,ASRT_percept,2023.2.3,141.156011269011,2024-08-07 15h05.17.327586 +0800,,,
sequences/sub103_initial_random.csv,1,90,1,3,red,"","","",0,0,0,0,0,34,34,34,,,,,,,,,,,,,,,,,,,,,,,,,,,,,57.5360468999998,,,,,,,"",,"",,,,57.5305561999994,57.5360468999998,57.5360468999998,57.7379056,57.8584041999993,3,1,0.318751499999962,None,57.8591179999994,57.863488,57.863488,58.0708734,58.2796429999999,58.2737509999997,58.2737978999994,58.2796429999999,58.9742517999994,,,,,,,"",,"",,,,,,"",,"",,,,,,,"",,"",,,,,"",,"",,,,,,"",,,,,,,,,,"",,"",,,,,sub103,percept,6,0,2024-08-07_15h04.46.095,ASRT_percept,2023.2.3,141.156011269011,2024-08-07 15h05.17.327586 +0800,,,
sequences/sub103_initial_random.csv,0,0,0,4,red,"","","",0,0,0,0,0,35,35,35,,,,,,,,,,,,,,,,,,,,,,,,,,,,,58.9823117999995,,,,,,,"",,"",,,,58.9751563,58.9823117999995,58.9823117999995,59.1825690999995,59.4077178999996,4,1,0.421672399999807,None,59.4085071999998,59.4187069999998,59.4187069999998,59.6199299999999,59.8283376999998,59.8223226,59.8223635999993,59.8283376999998,60.5229857999993,,,,,,,"",,"",,,,,,"",,"",,,,,,,"",,"",,,,,"",,"",,,,,,"",,,,,,,,,,"",,"",,,,,sub103,percept,6,0,2024-08-07_15h04.46.095,ASRT_percept,2023.2.3,141.156011269011,2024-08-07 15h05.17.327586 +0800,,,
sequences/sub103_initial_random.csv,2,180,2,2,red,"","","",0,0,0,0,0,36,36,36,,,,,,,,,,,,,,,,,,,,,,,,,,,,,60.5294708000001,,,,,,,"",,"",,,,60.5236416999997,60.5294708000001,60.5294708000001,60.7311353999994,60.8647711999993,2,1,0.330355099999906,None,60.8655209999997,60.8721556999999,60.8721556999999,61.0780132999998,61.2862668999997,61.2807507999996,61.2807978999999,61.2862668999997,61.9810932999999,,,,,,,"",,"",,,,,,"",,"",,,,,,,"",,"",,,,,"",,"",,,,,,"",,,,,,,,,,"",,"",,,,,sub103,percept,6,0,2024-08-07_15h04.46.095,ASRT_percept,2023.2.3,141.156011269011,2024-08-07 15h05.17.327586 +0800,,,
sequences/sub103_initial_random.csv,0,0,0,4,red,"","","",0,0,0,0,0,37,37,37,,,,,,,,,,,,,,,,,,,,,,,,,,,,,61.9887924999994,,,,,,,"",,"",,,,61.9817979,61.9887924999994,61.9887924999994,62.1889621999999,62.3889500999994,4,1,0.389986000000135,None,62.3895974999996,62.3956787999996,62.3956787999996,62.5987226999996,62.8070418999996,62.8009364,62.8009741999995,62.8070418999996,63.5017604999994,,,,,,,"",,"",,,,,,"",,"",,,,,,,"",,"",,,,,"",,"",,,,,,"",,,,,,,,,,"",,"",,,,,sub103,percept,6,0,2024-08-07_15h04.46.095,ASRT_percept,2023.2.3,141.156011269011,2024-08-07 15h05.17.327586 +0800,,,
sequences/sub103_initial_random.csv,1,90,1,3,red,"","","",0,0,0,0,0,38,38,38,,,,,,,,,,,,,,,,,,,,,,,,,,,,,63.5092289999993,,,,,,,"",,"",,,,63.5023954999997,63.5092289999993,63.5092289999993,63.7099487999995,63.8435532999993,3,1,0.33008880000034,None,63.8443041999999,63.8523756999994,63.8523756999994,64.0571092,64.2654800999999,64.2600923999999,64.2601443999993,64.2654800999999,64.9607658999994,64.9669991000001,,,,,,"",,"",,,,,,"",,"",,,,,,,"",,"",,,,,"",,"",,,,,,"",,,,,,,,,,"",,"",,,,,sub103,percept,6,0,2024-08-07_15h04.46.095,ASRT_percept,2023.2.3,141.156011269011,2024-08-07 15h05.17.327586 +0800,,,
sequences/sub103_initial_random.csv,0,0,0,4,red,"","","",0,0,0,0,0,39,39,39,,,,,,,,,,,,,,,,,,,,,,,,,,,,,64.9669991000001,,,,,,,"",,"",,,,64.9614523,64.9669991000001,64.9669991000001,65.1682216999998,65.4155596999999,4,1,0.444726499999888,None,65.4164341999995,65.4244832999993,65.4244832999993,65.6262637,65.8346529,65.8286742,65.8287132999994,65.8346529,66.5304568000001,,,,,,,"",,"",,,,,,"",,"",,,,,,,"",,"",,,,,"",,"",,,,,,"",,,,,,,,,,"",,"",,,,,sub103,percept,6,0,2024-08-07_15h04.46.095,ASRT_percept,2023.2.3,141.156011269011,2024-08-07 15h05.17.327586 +0800,,,
sequences/sub103_initial_random.csv,1,90,1,3,red,"","","",0,0,0,0,0,40,40,40,,,,,,,,,,,,,,,,,,,,,,,,,,,,,66.5402512999999,,,,,,,"",,"",,,,66.5312064,66.5402512999999,66.5402512999999,66.7444111999994,66.9758550999995,3,1,0.431028399999377,None,66.9765315999994,66.9835177999994,66.9835177999994,67.1888632,67.3981432999999,67.3921878000001,67.3922335999996,67.3981432999999,68.0924220999996,,,,,,,"",,"",,,,,,"",,"",,,,,,,"",,"",,,,,"",,"",,,,,,"",,,,,,,,,,"",,"",,,,,sub103,percept,6,0,2024-08-07_15h04.46.095,ASRT_percept,2023.2.3,141.156011269011,2024-08-07 15h05.17.327586 +0800,,,
sequences/sub103_initial_random.csv,2,180,2,2,red,"","","",0,0,0,0,0,41,41,41,,,,,,,,,,,,,,,,,,,,,,,,,,,,,68.1004290999999,,,,,,,"",,"",,,,68.0931593999994,68.1004290999999,68.1004290999999,68.3002219,68.4755388999993,2,1,0.370990899999924,None,68.4761676999997,68.482258,68.482258,68.6891004999998,68.8979948999995,68.8925076999994,68.8925663999999,68.8979948999995,69.5929914999997,69.5993924999993,,,,,,"",,"",,,,,,"",,"",,,,,,,"",,"",,,,,"",,"",,,,,,"",,,,,,,,,,"",,"",,,,,sub103,percept,6,0,2024-08-07_15h04.46.095,ASRT_percept,2023.2.3,141.156011269011,2024-08-07 15h05.17.327586 +0800,,,
sequences/sub103_initial_random.csv,3,270,3,1,red,"","","",0,0,0,0,0,42,42,42,,,,,,,,,,,,,,,,,,,,,,,,,,,,,69.5993924999993,,,,,,,"",,"",,,,69.5936825999997,69.5993924999993,69.5993924999993,69.8000218999996,69.9969846999993,1,1,0.393575099999907,None,69.9976397,70.0038448999994,70.0038448999994,70.2093440999997,70.4178965000001,70.4129091999994,70.4129619999994,70.4178965000001,71.1138981999993,71.1196578999998,,,,,,"",,"",,,,,,"",,"",,,,,,,"",,"",,,,,"",,"",,,,,,"",,,,,,,,,,"",,"",,,,,sub103,percept,6,0,2024-08-07_15h04.46.095,ASRT_percept,2023.2.3,141.156011269011,2024-08-07 15h05.17.327586 +0800,,,
sequences/sub103_initial_random.csv,3,270,3,1,red,"","","",0,0,0,0,0,43,43,43,,,,,,,,,,,,,,,,,,,,,,,,,,,,,71.1196578999998,,,,,,,"",,"",,,,71.1144453999996,71.1196578999998,71.1196578999998,71.3208446999997,71.5036111999998,1,1,0.381416199999876,None,71.5042908999994,71.5127173999999,71.5127173999999,71.7168019000001,71.9257978999995,71.9189987,71.9190364999995,71.9257978999995,72.6196505999997,,,,,,,"",,"",,,,,,"",,"",,,,,,,"",,"",,,,,"",,"",,,,,,"",,,,,,,,,,"",,"",,,,,sub103,percept,6,0,2024-08-07_15h04.46.095,ASRT_percept,2023.2.3,141.156011269011,2024-08-07 15h05.17.327586 +0800,,,
sequences/sub103_initial_random.csv,2,180,2,2,red,"","","",0,0,0,0,0,44,44,44,,,,,,,,,,,,,,,,,,,,,,,,,,,,,72.6261729999997,,,,,,,"",,"",,,,72.6202939999994,72.6261729999997,72.6261729999997,72.8290848999995,73.0388481999999,2,1,0.404788599999847,None,73.0397300999994,73.0456021999999,73.0456021999999,73.2517891999996,73.4594778999999,73.4542007999999,73.4542471999994,73.4594778999999,74.1549230999999,74.1604632999997,,,,,,"",,"",,,,,,"",,"",,,,,,,"",,"",,,,,"",,"",,,,,,"",,,,,,,,,,"",,"",,,,,sub103,percept,6,0,2024-08-07_15h04.46.095,ASRT_percept,2023.2.3,141.156011269011,2024-08-07 15h05.17.327586 +0800,,,
sequences/sub103_initial_random.csv,2,180,2,2,red,"","","",0,0,0,0,0,45,45,45,,,,,,,,,,,,,,,,,,,,,,,,,,,,,74.1604632999997,,,,,,,"",,"",,,,74.1554971999995,74.1604632999997,74.1604632999997,74.3631167999993,74.5545673999996,2,1,0.389857899999697,None,74.5554402999997,74.5631576999995,74.5631576999995,74.7655276999995,74.9736757000001,74.968159,74.9682113999998,74.9736757000001,75.6689323000001,75.6756860999994,,,,,,"",,"",,,,,,"",,"",,,,,,,"",,"",,,,,"",,"",,,,,,"",,,,,,,,,,"",,"",,,,,sub103,percept,6,0,2024-08-07_15h04.46.095,ASRT_percept,2023.2.3,141.156011269011,2024-08-07 15h05.17.327586 +0800,,,
sequences/sub103_initial_random.csv,1,90,1,3,red,"","","",0,0,0,0,0,46,46,46,,,,,,,,,,,,,,,,,,,,,,,,,,,,,75.6756860999994,,,,,,,"",,"",,,,75.6695432999995,75.6756860999994,75.6756860999994,75.8762733999993,76.0586484999994,3,1,0.379087400000572,None,76.0592883999998,76.0642902,76.0642902,76.2726862,76.4804318999995,76.4745972000001,76.4746435999996,76.4804318999995,77.1749168999995,,,,,,,"",,"",,,,,,"",,"",,,,,,,"",,"",,,,,"",,"",,,,,,"",,,,,,,,,,"",,"",,,,,sub103,percept,6,0,2024-08-07_15h04.46.095,ASRT_percept,2023.2.3,141.156011269011,2024-08-07 15h05.17.327586 +0800,,,
sequences/sub103_initial_random.csv,0,0,0,4,red,"","","",0,0,0,0,0,47,47,47,,,,,,,,,,,,,,,,,,,,,,,,,,,,,77.1831290999999,,,,,,,"",,"",,,,77.1757152999999,77.1831290999999,77.1831290999999,77.3834428,77.5870561000002,4,1,0.397407899999962,None,77.5876905999994,77.5952131999993,77.5952131999993,77.7996900999997,78.0092490999996,78.0026504999996,78.0026971999996,78.0092490999996,78.7028798000001,,,,,,,"",,"",,,,,,"",,"",,,,,,,"",,"",,,,,"",,"",,,,,,"",,,,,,,,,,"",,"",,,,,sub103,percept,6,0,2024-08-07_15h04.46.095,ASRT_percept,2023.2.3,141.156011269011,2024-08-07 15h05.17.327586 +0800,,,
sequences/sub103_initial_random.csv,0,0,0,4,red,"","","",0,0,0,0,0,48,48,48,,,,,,,,,,,,,,,,,,,,,,,,,,,,,78.7090804999998,,,,,,,"",,"",,,,78.7036220999999,78.7090804999998,78.7090804999998,78.9107908999995,79.0732073999998,4,1,0.35874369999965,None,79.0739561,79.0793715,79.0793715,79.2859889000001,79.4938818999999,79.4884242999997,79.4884709999997,79.4938818999999,80.1893641999996,,,,,,,"",,"",,,,,,"",,"",,,,,,,"",,"",,,,,"",,"",,,,,,"",,,,,,,,,,"",,"",,,,,sub103,percept,6,0,2024-08-07_15h04.46.095,ASRT_percept,2023.2.3,141.156011269011,2024-08-07 15h05.17.327586 +0800,,,
sequences/sub103_initial_random.csv,1,90,1,3,red,"","","",0,0,0,0,0,49,49,49,,,,,,,,,,,,,,,,,,,,,,,,,,,,,80.1988138999996,,,,,,,"",,"",,,,80.1900717999997,80.1988138999996,80.1988138999996,80.4048328999997,80.5806616999998,3,1,0.37677210000038,None,80.5814469999996,80.5915422999997,80.5915422999997,80.7930479999996,81.0015303999999,80.9954917999994,80.9955461,81.0015303999999,81.6959149999993,,,,,,,"",,"",,,,,,"",,"",,,,,,,"",,"",,,,,"",,"",,,,,,"",,,,,,,,,,"",,"",,,,,sub103,percept,6,0,2024-08-07_15h04.46.095,ASRT_percept,2023.2.3,141.156011269011,2024-08-07 15h05.17.327586 +0800,,,
sequences/sub103_initial_random.csv,1,90,1,3,red,"","","",0,0,0,0,0,50,50,50,,,,,,,,,,,,,,,,,,,,,,,,,,,,,81.7032578999997,,,,,,,"",,"",,,,81.6967127999997,81.7032578999997,81.7032578999997,81.9043102999995,82.0516050999995,3,1,0.345193300000574,None,82.0523201999995,82.0608229999998,82.0608229999998,82.2650441999995,82.4750399999994,82.4687589999994,82.4688102,82.4750399999994,83.1690945999999,83.1752679000001,,,,,,"",,"",,,,,,"",,"",,,,,,,"",,"",,,,,"",,"",,,,,,"",,,,,,,,,,"",,"",,,,,sub103,percept,6,0,2024-08-07_15h04.46.095,ASRT_percept,2023.2.3,141.156011269011,2024-08-07 15h05.17.327586 +0800,,,
sequences/sub103_initial_random.csv,0,0,0,4,red,"","","",0,0,0,0,0,51,51,51,,,,,,,,,,,,,,,,,,,,,,,,,,,,,83.1752679000001,,,,,,,"",,"",,,,83.1697280999997,83.1752679000001,83.1752679000001,83.3759826999994,83.6081921999994,4,1,0.430407699999705,None,83.6088572999997,83.6158295999994,83.6158295999994,83.8203687999994,84.0289550999996,84.0230560999999,84.0231034999997,84.0289550999996,84.7236677999999,,,,,,,"",,"",,,,,,"",,"",,,,,,,"",,"",,,,,"",,"",,,,,,"",,,,,,,,,,"",,"",,,,,sub103,percept,6,0,2024-08-07_15h04.46.095,ASRT_percept,2023.2.3,141.156011269011,2024-08-07 15h05.17.327586 +0800,,,
sequences/sub103_initial_random.csv,3,270,3,1,red,"","","",0,0,0,0,0,52,52,52,,,,,,,,,,,,,,,,,,,,,,,,,,,,,84.7310772000001,,,,,,,"",,"",,,,84.7243687,84.7310772000001,84.7310772000001,84.9317627999999,85.1141088999994,1,1,0.375603100000262,None,85.1150260999994,85.1213250000001,85.1213250000001,85.3272718999997,85.5355507999993,85.5294995999993,85.5295353000001,85.5355507999993,86.2306860999997,,,,,,,"",,"",,,,,,"",,"",,,,,,,"",,"",,,,,"",,"",,,,,,"",,,,,,,,,,"",,"",,,,,sub103,percept,6,0,2024-08-07_15h04.46.095,ASRT_percept,2023.2.3,141.156011269011,2024-08-07 15h05.17.327586 +0800,,,
sequences/sub103_initial_random.csv,3,270,3,1,red,"","","",0,0,0,0,0,53,53,53,,,,,,,,,,,,,,,,,,,,,,,,,,,,,86.2378564000001,,,,,,,"",,"",,,,86.2315025999997,86.2378564000001,86.2378564000001,86.4382360999998,86.5729334999996,1,1,0.329776100000345,None,86.5736596999996,86.5794319999995,86.5794319999995,86.7853250999997,86.9942667999994,86.9881715000001,86.9882143999994,86.9942667999994,87.6890827999996,,,,,,,"",,"",,,,,,"",,"",,,,,,,"",,"",,,,,"",,"",,,,,,"",,,,,,,,,,"",,"",,,,,sub103,percept,6,0,2024-08-07_15h04.46.095,ASRT_percept,2023.2.3,141.156011269011,2024-08-07 15h05.17.327586 +0800,,,
sequences/sub103_initial_random.csv,3,270,3,1,red,"","","",0,0,0,0,0,54,54,54,,,,,,,,,,,,,,,,,,,,,,,,,,,,,87.6948849999999,,,,,,,"",,"",,,,87.6896837999993,87.6948849999999,87.6948849999999,87.8971301000001,88.0586834999995,1,1,0.360788800000591,None,88.0592814000002,88.0653358999998,88.0653358999998,88.2717542999999,88.4796650999997,88.4741294999994,88.4741691999998,88.4796650999997,89.1750751,,,,,,,"",,"",,,,,,"",,"",,,,,,,"",,"",,,,,"",,"",,,,,,"",,,,,,,,,,"",,"",,,,,sub103,percept,6,0,2024-08-07_15h04.46.095,ASRT_percept,2023.2.3,141.156011269011,2024-08-07 15h05.17.327586 +0800,,,
sequences/sub103_initial_random.csv,3,270,3,1,red,"","","",0,0,0,0,0,55,55,55,,,,,,,,,,,,,,,,,,,,,,,,,,,,,89.1810953999993,,,,,,,"",,"",,,,89.1756124999993,89.1810953999993,89.1810953999993,89.3828409999997,89.5307671000001,1,1,0.34624199999962,None,89.5315593999994,89.5384605999998,89.5384605999998,89.7439418999993,89.9524581999995,89.9463262999998,89.9463636999999,89.9524581999995,90.6468408000001,,,,,,,"",,"",,,,,,"",,"",,,,,,,"",,"",,,,,"",,"",,,,,,"",,,,,,,,,,"",,"",,,,,sub103,percept,6,0,2024-08-07_15h04.46.095,ASRT_percept,2023.2.3,141.156011269011,2024-08-07 15h05.17.327586 +0800,,,
sequences/sub103_initial_random.csv,3,270,3,1,red,"","","",0,0,0,0,0,56,56,56,,,,,,,,,,,,,,,,,,,,,,,,,,,,,90.6535948999999,,,,,,,"",,"",,,,90.6474398999999,90.6535948999999,90.6535948999999,90.8551436999996,91.0306277,1,1,0.371883399999206,None,91.0312792999994,91.0373444999996,91.0373444999996,91.2440055999996,91.4523472000001,91.4467778999997,91.4468185999995,91.4523472000001,92.1475918999995,92.1533381999998,,,,,,"",,"",,,,,,"",,"",,,,,,,"",,"",,,,,"",,"",,,,,,"",,,,,,,,,,"",,"",,,,,sub103,percept,6,0,2024-08-07_15h04.46.095,ASRT_percept,2023.2.3,141.156011269011,2024-08-07 15h05.17.327586 +0800,,,
sequences/sub103_initial_random.csv,3,270,3,1,red,"","","",0,0,0,0,0,57,57,57,,,,,,,,,,,,,,,,,,,,,,,,,,,,,92.1533381999998,,,,,,,"",,"",,,,92.1482016999999,92.1533381999998,92.1533381999998,92.3549843000001,92.5298589999993,1,1,0.369482000000062,None,92.5304757999993,92.5351347999995,92.5351347999995,92.7436711,92.9521680999997,92.9465333999997,92.9465688999999,92.9521680999997,93.6475258,,,,,,,"",,"",,,,,,"",,"",,,,,,,"",,"",,,,,"",,"",,,,,,"",,,,,,,,,,"",,"",,,,,sub103,percept,6,0,2024-08-07_15h04.46.095,ASRT_percept,2023.2.3,141.156011269011,2024-08-07 15h05.17.327586 +0800,,,
sequences/sub103_initial_random.csv,1,90,1,3,red,"","","",0,0,0,0,0,58,58,58,,,,,,,,,,,,,,,,,,,,,,,,,,,,,93.6533290999996,,,,,,,"",,"",,,,93.6480937999995,93.6533290999996,93.6533290999996,93.8545923000001,93.9828183,3,1,0.326549300000806,None,93.9834903000001,93.9936252999996,93.9936252999996,94.2597797999997,94.4674709999999,94.4616889999998,94.4617241999995,94.4674709999999,95.1621261,,,,,,,"",,"",,,,,,"",,"",,,,,,,"",,"",,,,,"",,"",,,,,,"",,,,,,,,,,"",,"",,,,,sub103,percept,6,0,2024-08-07_15h04.46.095,ASRT_percept,2023.2.3,141.156011269011,2024-08-07 15h05.17.327586 +0800,,,
sequences/sub103_initial_random.csv,2,180,2,2,red,"","","",0,0,0,0,0,59,59,59,,,,,,,,,,,,,,,,,,,,,,,,,,,,,95.1686501999993,,,,,,,"",,"",,,,95.1626237000001,95.1686501999993,95.1686501999993,95.3703202999995,95.4711179999995,2,1,0.299281900000096,None,95.4719993999997,95.4781009999997,95.4781009999997,95.6828492999994,95.8909700999993,95.8847912000001,95.8848241999995,95.8909700999993,96.5861813000001,,,,,,,"",,"",,,,,,"",,"",,,,,,,"",,"",,,,,"",,"",,,,,,"",,,,,,,,,,"",,"",,,,,sub103,percept,6,0,2024-08-07_15h04.46.095,ASRT_percept,2023.2.3,141.156011269011,2024-08-07 15h05.17.327586 +0800,,,
sequences/sub103_initial_random.csv,0,0,0,4,red,"","","",0,0,0,0,0,60,60,60,,,,,,,,,,,,,,,,,,,,,,,,,,,,,96.5928553999993,,,,,,,"",,"",,,,96.5867595,96.5928553999993,96.5928553999993,96.7939839000001,96.9831991000001,4,1,0.384640600000239,None,96.9839573999998,96.9901709999995,96.9901709999995,97.1964011,97.4047946999999,97.3992131999994,97.3992479999997,97.4047946999999,98.0993912999993,,,,,,,"",,"",,,,,,"",,"",,,,,,,"",,"",,,,,"",,"",,,,,,"",,,,,,,,,,"",,"",,,,,sub103,percept,6,0,2024-08-07_15h04.46.095,ASRT_percept,2023.2.3,141.156011269011,2024-08-07 15h05.17.327586 +0800,,,
sequences/sub103_initial_random.csv,0,0,0,4,red,"","","",0,0,0,0,0,61,61,61,,,,,,,,,,,,,,,,,,,,,,,,,,,,,98.1063096999997,,,,,,,"",,"",,,,98.0998370999996,98.1063096999997,98.1063096999997,98.3077948999999,98.4968994000001,4,1,0.384307100000115,None,98.4974708999998,98.5037401999998,98.5037401999998,98.7107265999994,98.9191252999999,98.9131995999997,98.9132431999997,98.9191252999999,99.6134665,,,,,,,"",,"",,,,,,"",,"",,,,,,,"",,"",,,,,"",,"",,,,,,"",,,,,,,,,,"",,"",,,,,sub103,percept,6,0,2024-08-07_15h04.46.095,ASRT_percept,2023.2.3,141.156011269011,2024-08-07 15h05.17.327586 +0800,,,
sequences/sub103_initial_random.csv,2,180,2,2,red,"","","",0,0,0,0,0,62,62,62,,,,,,,,,,,,,,,,,,,,,,,,,,,,,99.6202321000001,,,,,,,"",,"",,,,99.6141646999995,99.6202321000001,99.6202321000001,99.8215934999998,99.9691949999997,2,1,0.342404699999861,None,99.9698308999996,99.9760784999999,99.9760784999999,100.1829312,100.3910606,100.3851188,100.3851539,100.3910606,101.0858981,101.0920427,,,,,,"",,"",,,,,,"",,"",,,,,,,"",,"",,,,,"",,"",,,,,,"",,,,,,,,,,"",,"",,,,,sub103,percept,6,0,2024-08-07_15h04.46.095,ASRT_percept,2023.2.3,141.156011269011,2024-08-07 15h05.17.327586 +0800,,,
sequences/sub103_initial_random.csv,0,0,0,4,red,"","","",0,0,0,0,0,63,63,63,,,,,,,,,,,,,,,,,,,,,,,,,,,,,101.0920427,,,,,,,"",,"",,,,101.0864292,101.0920427,101.0920427,101.293948699999,101.4557165,4,1,0.361008100000618,None,101.4563848,101.4616044,101.4616044,101.6688981,101.877052899999,101.8709002,101.870932899999,101.877052899999,102.571931,,,,,,,"",,"",,,,,,"",,"",,,,,,,"",,"",,,,,"",,"",,,,,,"",,,,,,,,,,"",,"",,,,,sub103,percept,6,0,2024-08-07_15h04.46.095,ASRT_percept,2023.2.3,141.156011269011,2024-08-07 15h05.17.327586 +0800,,,
sequences/sub103_initial_random.csv,1,90,1,3,red,"","","",0,0,0,0,0,64,64,64,,,,,,,,,,,,,,,,,,,,,,,,,,,,,102.5782493,,,,,,,"",,"",,,,102.5724473,102.5782493,102.5782493,102.780137899999,102.9359482,3,1,0.355057600000691,None,102.9365533,102.9411841,102.9411841,103.147932,103.356440699999,103.350556099999,103.350602799999,103.356440699999,104.051537599999,,,,,,,"",,"",,,,,,"",,"",,,,,,,"",,"",,,,,"",,"",,,,,,"",,,,,,,,,,"",,"",,,,,sub103,percept,6,0,2024-08-07_15h04.46.095,ASRT_percept,2023.2.3,141.156011269011,2024-08-07 15h05.17.327586 +0800,,,
sequences/sub103_initial_random.csv,0,0,0,4,red,"","","",0,0,0,0,0,65,65,65,,,,,,,,,,,,,,,,,,,,,,,,,,,,,104.0605746,,,,,,,"",,"",,,,104.0523231,104.0605746,104.0605746,104.2660399,104.463401,4,1,0.399812600000587,None,104.4639664,104.470990899999,104.470990899999,104.6754628,104.8838449,104.878373099999,104.878473299999,104.8838449,105.5791085,105.5852033,,,,,,"",,"",,,,,,"",,"",,,,,,,"",,"",,,,,"",,"",,,,,,"",,,,,,,,,,"",,"",,,,,sub103,percept,6,0,2024-08-07_15h04.46.095,ASRT_percept,2023.2.3,141.156011269011,2024-08-07 15h05.17.327586 +0800,,,
sequences/sub103_initial_random.csv,1,90,1,3,red,"","","",0,0,0,0,0,66,66,66,,,,,,,,,,,,,,,,,,,,,,,,,,,,,105.5852033,,,,,,,"",,"",,,,105.5796882,105.5852033,105.5852033,105.7868425,105.976562299999,3,1,0.385192500000812,None,105.9772042,105.9820015,105.9820015,106.1892766,106.397696499999,106.3918502,106.3918822,106.397696499999,107.0924262,,,,,,,"",,"",,,,,,"",,"",,,,,,,"",,"",,,,,"",,"",,,,,,"",,,,,,,,,,"",,"",,,,,sub103,percept,6,0,2024-08-07_15h04.46.095,ASRT_percept,2023.2.3,141.156011269011,2024-08-07 15h05.17.327586 +0800,,,
sequences/sub103_initial_random.csv,0,0,0,4,red,"","","",0,0,0,0,0,67,67,67,,,,,,,,,,,,,,,,,,,,,,,,,,,,,107.0990021,,,,,,,"",,"",,,,107.0929781,107.0990021,107.0990021,107.3006765,107.4503582,4,1,0.348193700000593,None,107.451368399999,107.457681999999,107.457681999999,107.661744499999,107.8700797,107.8638227,107.8638585,107.8700797,108.5648421,,,,,,,"",,"",,,,,,"",,"",,,,,,,"",,"",,,,,"",,"",,,,,,"",,,,,,,,,,"",,"",,,,,sub103,percept,6,0,2024-08-07_15h04.46.095,ASRT_percept,2023.2.3,141.156011269011,2024-08-07 15h05.17.327586 +0800,,,
sequences/sub103_initial_random.csv,0,0,0,4,red,"","","",0,0,0,0,0,68,68,68,,,,,,,,,,,,,,,,,,,,,,,,,,,,,108.5713476,,,,,,,"",,"",,,,108.565355,108.5713476,108.5713476,108.7729457,109.010078599999,4,1,0.431933800000479,None,109.0106964,109.015369,109.015369,109.2245913,109.432319,109.4266762,109.426723,109.432319,110.1273566,,,,,,,"",,"",,,,,,"",,"",,,,,,,"",,"",,,,,"",,"",,,,,,"",,,,,,,,,,"",,"",,,,,sub103,percept,6,0,2024-08-07_15h04.46.095,ASRT_percept,2023.2.3,141.156011269011,2024-08-07 15h05.17.327586 +0800,,,
sequences/sub103_initial_random.csv,2,180,2,2,red,"","","",0,0,0,0,0,69,69,69,,,,,,,,,,,,,,,,,,,,,,,,,,,,,110.134104,,,,,,,"",,"",,,,110.127904999999,110.134104,110.134104,110.335157099999,110.5463442,2,1,0.409082399999534,None,110.546988999999,110.5545883,110.5545883,110.758789,110.9669931,110.9613266,110.961364299999,110.9669931,111.662200899999,,,,,,,"",,"",,,,,,"",,"",,,,,,,"",,"",,,,,"",,"",,,,,,"",,,,,,,,,,"",,"",,,,,sub103,percept,6,0,2024-08-07_15h04.46.095,ASRT_percept,2023.2.3,141.156011269011,2024-08-07 15h05.17.327586 +0800,,,
sequences/sub103_initial_random.csv,2,180,2,2,red,"","","",0,0,0,0,0,70,70,70,,,,,,,,,,,,,,,,,,,,,,,,,,,,,111.669382,,,,,,,"",,"",,,,111.6628126,111.669382,111.669382,111.8702889,112.121244399999,2,1,0.446994899999481,None,112.1218721,112.126378999999,112.126378999999,112.3352303,112.5434945,112.5372307,112.537267,112.5434945,113.238061499999,,,,,,,"",,"",,,,,,"",,"",,,,,,,"",,"",,,,,"",,"",,,,,,"",,,,,,,,,,"",,"",,,,,sub103,percept,6,0,2024-08-07_15h04.46.095,ASRT_percept,2023.2.3,141.156011269011,2024-08-07 15h05.17.327586 +0800,,,
sequences/sub103_initial_random.csv,3,270,3,1,red,"","","",0,0,0,0,0,71,71,71,,,,,,,,,,,,,,,,,,,,,,,,,,,,,113.245042099999,,,,,,,"",,"",,,,113.2386379,113.245042099999,113.245042099999,113.446308699999,113.622498,1,1,0.372332199999619,None,113.6231257,113.6296124,113.6296124,113.835519599999,114.0432713,114.037727399999,114.037773399999,114.0432713,114.7383978,,,,,,,"",,"",,,,,,"",,"",,,,,,,"",,"",,,,,"",,"",,,,,,"",,,,,,,,,,"",,"",,,,,sub103,percept,6,0,2024-08-07_15h04.46.095,ASRT_percept,2023.2.3,141.156011269011,2024-08-07 15h05.17.327586 +0800,,,
sequences/sub103_initial_random.csv,2,180,2,2,red,"","","",0,0,0,0,0,72,72,72,,,,,,,,,,,,,,,,,,,,,,,,,,,,,114.7449775,,,,,,,"",,"",,,,114.738976199999,114.7449775,114.7449775,114.9461265,115.134407199999,2,1,0.382624699999724,None,115.1347236,115.140369299999,115.140369299999,115.349012,115.5570957,115.551023,115.5510587,115.5570957,116.2522917,,,,,,,"",,"",,,,,,"",,"",,,,,,,"",,"",,,,,"",,"",,,,,,"",,,,,,,,,,"",,"",,,,,sub103,percept,6,0,2024-08-07_15h04.46.095,ASRT_percept,2023.2.3,141.156011269011,2024-08-07 15h05.17.327586 +0800,,,
sequences/sub103_initial_random.csv,0,0,0,4,red,"","","",0,0,0,0,0,73,73,73,,,,,,,,,,,,,,,,,,,,,,,,,,,,,116.258655099999,,,,,,,"",,"",,,,116.252780899999,116.258655099999,116.258655099999,116.4600137,116.6036616,4,1,0.341818200000489,None,116.6043229,116.6101902,116.6101902,116.8143786,117.0222791,117.016519299999,117.0165578,117.0222791,117.7171453,,,,,,,"",,"",,,,,,"",,"",,,,,,,"",,"",,,,,"",,"",,,,,,"",,,,,,,,,,"",,"",,,,,sub103,percept,6,0,2024-08-07_15h04.46.095,ASRT_percept,2023.2.3,141.156011269011,2024-08-07 15h05.17.327586 +0800,,,
sequences/sub103_initial_random.csv,1,90,1,3,red,"","","",0,0,0,0,0,74,74,74,,,,,,,,,,,,,,,,,,,,,,,,,,,,,117.724139399999,,,,,,,"",,"",,,,117.7175962,117.724139399999,117.724139399999,117.9250839,118.086488399999,3,1,0.355210200000329,None,118.086985299999,118.0924982,118.0924982,118.3002351,118.508636699999,118.503077699999,118.5031187,118.508636699999,119.2048119,,,,,,,"",,"",,,,,,"",,"",,,,,,,"",,"",,,,,"",,"",,,,,,"",,,,,,,,,,"",,"",,,,,sub103,percept,6,0,2024-08-07_15h04.46.095,ASRT_percept,2023.2.3,141.156011269011,2024-08-07 15h05.17.327586 +0800,,,
sequences/sub103_initial_random.csv,2,180,2,2,red,"","","",0,0,0,0,0,75,75,75,,,,,,,,,,,,,,,,,,,,,,,,,,,,,119.209892,,,,,,,"",,"",,,,119.2053024,119.209892,119.209892,119.4113649,119.6140651,2,1,0.397155399999974,None,119.614798799999,119.6193243,119.6193243,119.8278568,120.0361597,120.0308741,120.0309209,120.0361597,120.7321455,120.7391939,,,,,,"",,"",,,,,,"",,"",,,,,,,"",,"",,,,,"",,"",,,,,,"",,,,,,,,,,"",,"",,,,,sub103,percept,6,0,2024-08-07_15h04.46.095,ASRT_percept,2023.2.3,141.156011269011,2024-08-07 15h05.17.327586 +0800,,,
sequences/sub103_initial_random.csv,2,180,2,2,red,"","","",0,0,0,0,0,76,76,76,,,,,,,,,,,,,,,,,,,,,,,,,,,,,120.7391939,,,,,,,"",,"",,,,120.7327473,120.7391939,120.7391939,120.9390441,121.1418331,2,1,0.395165099999758,None,121.1423267,121.1468635,121.1468635,121.355750299999,121.564066999999,121.558593199999,121.5586352,121.564066999999,122.2589475,,,,,,,"",,"",,,,,,"",,"",,,,,,,"",,"",,,,,"",,"",,,,,,"",,,,,,,,,,"",,"",,,,,sub103,percept,6,0,2024-08-07_15h04.46.095,ASRT_percept,2023.2.3,141.156011269011,2024-08-07 15h05.17.327586 +0800,,,
sequences/sub103_initial_random.csv,0,0,0,4,red,"","","",0,0,0,0,0,77,77,77,,,,,,,,,,,,,,,,,,,,,,,,,,,,,122.2661334,,,,,,,"",,"",,,,122.2597122,122.2661334,122.2661334,122.4669263,122.629007,4,1,0.356110099999569,None,122.6295506,122.6356068,122.6356068,122.841742,123.0506404,123.044109699999,123.0441487,123.0506404,123.7448463,,,,,,,"",,"",,,,,,"",,"",,,,,,,"",,"",,,,,"",,"",,,,,,"",,,,,,,,,,"",,"",,,,,sub103,percept,6,0,2024-08-07_15h04.46.095,ASRT_percept,2023.2.3,141.156011269011,2024-08-07 15h05.17.327586 +0800,,,
sequences/sub103_initial_random.csv,1,90,1,3,red,"","","",0,0,0,0,0,78,78,78,,,,,,,,,,,,,,,,,,,,,,,,,,,,,123.7513497,,,,,,,"",,"",,,,123.7454277,123.7513497,123.7513497,123.9529476,124.1008545,3,1,0.342832700000145,None,124.1014596,124.1068077,124.1068077,124.314049699999,124.5222643,124.516648,124.5166904,124.5222643,125.2172843,,,,,,,"",,"",,,,,,"",,"",,,,,,,"",,"",,,,,"",,"",,,,,,"",,,,,,,,,,"",,"",,,,,sub103,percept,6,0,2024-08-07_15h04.46.095,ASRT_percept,2023.2.3,141.156011269011,2024-08-07 15h05.17.327586 +0800,,,
sequences/sub103_initial_random.csv,2,180,2,2,red,"","","",0,0,0,0,0,79,79,79,,,,,,,,,,,,,,,,,,,,,,,,,,,,,125.2245984,,,,,,,"",,"",,,,125.217985599999,125.2245984,125.2245984,125.4251082,125.5451864,2,1,0.316666599999735,None,125.5457275,125.5511233,125.5511233,125.7583478,125.966610699999,125.9605348,125.9605732,125.966610699999,126.6614077,,,,,,,"",,"",,,,,,"",,"",,,,,,,"",,"",,,,,"",,"",,,,,,"",,,,,,,,,,"",,"",,,,,sub103,percept,6,0,2024-08-07_15h04.46.095,ASRT_percept,2023.2.3,141.156011269011,2024-08-07 15h05.17.327586 +0800,,,
sequences/sub103_initial_random.csv,3,270,3,1,red,"","","",0,0,0,0,0,80,80,80,,,,,,,,,,,,,,,,,,,,,,,,,,,,,126.667989099999,,,,,,,"",,"",,,,126.6620047,126.667989099999,126.667989099999,126.8695896,127.0875516,1,1,0.417163500000243,None,127.0882007,127.093806899999,127.093806899999,127.3003539,127.508448699999,127.5026444,127.502682599999,127.508448699999,128.2032543,128.2097631,,,,,,"",,"",,,,,,"",,"",,,,,,,"",,"",,,,,"",,"",,,,,,"",,,,,,,,,,"",,"",,,,,sub103,percept,6,0,2024-08-07_15h04.46.095,ASRT_percept,2023.2.3,141.156011269011,2024-08-07 15h05.17.327586 +0800,,,
sequences/sub103_initial_random.csv,3,270,3,1,red,"","","",0,0,0,0,0,81,81,81,,,,,,,,,,,,,,,,,,,,,,,,,,,,,128.2097631,,,,,,,"",,"",,,,128.2037083,128.2097631,128.2097631,128.4112218,128.5731374,1,1,0.357297000000472,None,128.5737917,128.580273099999,128.580273099999,128.7861275,128.9943038,128.9888685,128.9889096,128.9943038,129.6894717,,,,,,,"",,"",,,,,,"",,"",,,,,,,"",,"",,,,,"",,"",,,,,,"",,,,,,,,,,"",,"",,,,,sub103,percept,6,0,2024-08-07_15h04.46.095,ASRT_percept,2023.2.3,141.156011269011,2024-08-07 15h05.17.327586 +0800,,,
sequences/sub103_initial_random.csv,3,270,3,1,red,"","","",0,0,0,0,0,82,82,82,,,,,,,,,,,,,,,,,,,,,,,,,,,,,129.6963202,,,,,,,"",,"",,,,129.689941799999,129.6963202,129.6963202,129.8973521,130.0265288,1,1,0.32681120000052,None,130.0272853,130.0330822,130.0330822,130.2382029,130.4459941,130.4393948,130.4394224,130.4459941,131.1408383,,,,,,,"",,"",,,,,,"",,"",,,,,,,"",,"",,,,,"",,"",,,,,,"",,,,,,,,,,"",,"",,,,,sub103,percept,6,0,2024-08-07_15h04.46.095,ASRT_percept,2023.2.3,141.156011269011,2024-08-07 15h05.17.327586 +0800,,,
sequences/sub103_initial_random.csv,0,0,0,4,red,"","","",0,0,0,0,0,83,83,83,,,,,,,,,,,,,,,,,,,,,,,,,,,,,131.1481932,,,,,,,"",,"",,,,131.1414182,131.1481932,131.1481932,131.3487004,131.5243667,4,1,0.372530300000108,None,131.5250762,131.5309523,131.5309523,131.737686699999,131.945889199999,131.9402636,131.9403017,131.945889199999,132.640680699999,,,,,,,"",,"",,,,,,"",,"",,,,,,,"",,"",,,,,"",,"",,,,,,"",,,,,,,,,,"",,"",,,,,sub103,percept,6,0,2024-08-07_15h04.46.095,ASRT_percept,2023.2.3,141.156011269011,2024-08-07 15h05.17.327586 +0800,,,
sequences/sub103_initial_random.csv,0,0,0,4,red,"","","",0,0,0,0,0,84,84,84,,,,,,,,,,,,,,,,,,,,,,,,,,,,,132.6469834,,,,,,,"",,"",,,,132.641238599999,132.6469834,132.6469834,132.848829,133.0097458,4,1,0.36009920000015,None,133.010436,133.0149522,133.0149522,133.2236428,133.4320176,133.4259261,133.4259594,133.4320176,134.126423899999,,,,,,,"",,"",,,,,,"",,"",,,,,,,"",,"",,,,,"",,"",,,,,,"",,,,,,,,,,"",,"",,,,,sub103,percept,6,0,2024-08-07_15h04.46.095,ASRT_percept,2023.2.3,141.156011269011,2024-08-07 15h05.17.327586 +0800,,,
"",,,,,"","","","",,,,,,,,,,,,,,,,,,,,,,,,,,,,,,,,,,,,,,,,,,,,"",,"",,,,,,,,,"",,,"",,,,,,,,,,,134.126622299999,134.1572448,134.1572448,138.161144299999,161.8836622,space,27.7192254000001,None,161.884392399999,161.889401599999,161.889401599999,161.889401599999,164.9874856,space,3.09517589999996,None,,,,,,,"",,"",,,,,"",,"",,,,,,"",,,,,,,,,,"",,"",,,,,sub103,percept,6,0,2024-08-07_15h04.46.095,ASRT_percept,2023.2.3,141.156011269011,2024-08-07 15h05.17.327586 +0800,,,
"",2,180,3,1,red,sequences/sub103_practice_sequence_00.csv,"","",,,,,,,,,0,0,0,0,0,0,0,61,,,,,,,,,,,,,,,,,,,,,166.0245324,,,,,,,"",,"",165.0061049,165.009649799999,165.9940037,166.0195163,166.0245324,166.0245324,166.2298892,166.662679999999,1,1,0.631008700000166,None,166.6636724,166.669622699999,166.669622699999,166.8756972,167.0836912,167.078525299999,167.0785716,167.0836912,167.7798194,167.7851934,,,,,,"",,"",,,,,,"",,"",,,,,,,"",,"",,,,,"",,"",,,,,,"",,,,,,,,,,"",,"",,,,,sub103,percept,6,0,2024-08-07_15h04.46.095,ASRT_percept,2023.2.3,141.156011269011,2024-08-07 15h05.17.327586 +0800,,,
"",1,90,2,2,red,sequences/sub103_practice_sequence_00.csv,"","",,,,,,,,,0,0,0,0,0,1,1,82,,,,,,,,,,,,,,,,,,,,,167.7851934,,,,,,,"",,"",,,,167.7805579,167.7851934,167.7851934,167.988025799999,168.4257226,2,1,0.633463900000606,None,168.4264889,168.4312782,168.4312782,168.6393836,168.847728199999,168.842485499999,168.842532799999,168.847728199999,169.5430176,,,,,,,"",,"",,,,,,"",,"",,,,,,,"",,"",,,,,"",,"",,,,,,"",,,,,,,,,,"",,"",,,,,sub103,percept,6,0,2024-08-07_15h04.46.095,ASRT_percept,2023.2.3,141.156011269011,2024-08-07 15h05.17.327586 +0800,,,
"",3,270,0,4,red,sequences/sub103_practice_sequence_00.csv,"","",,,,,,,,,0,0,0,0,0,2,2,4,,,,,,,,,,,,,,,,,,,,,169.5504739,,,,,,,"",,"",,,,169.543573999999,169.5504739,169.5504739,169.750281199999,169.9892206,4,1,0.434629399999722,None,169.9899663,169.9990724,169.9990724,170.201540399999,170.4100127,170.4046578,170.4047037,170.4100127,171.1054104,,,,,,,"",,"",,,,,,"",,"",,,,,,,"",,"",,,,,"",,"",,,,,,"",,,,,,,,,,"",,"",,,,,sub103,percept,6,0,2024-08-07_15h04.46.095,ASRT_percept,2023.2.3,141.156011269011,2024-08-07 15h05.17.327586 +0800,,,
"",2,180,3,1,red,sequences/sub103_practice_sequence_00.csv,"","",,,,,,,,,0,0,0,0,0,3,3,10,,,,,,,,,,,,,,,,,,,,,171.113009,,,,,,,"",,"",,,,171.1061522,171.113009,171.113009,171.313525,171.564912,1,1,0.446778900000027,None,171.565530899999,171.570248399999,171.570248399999,171.7780414,171.986605999999,171.980949299999,171.980991699999,171.986605999999,172.6817778,,,,,,,"",,"",,,,,,"",,"",,,,,,,"",,"",,,,,"",,"",,,,,,"",,,,,,,,,,"",,"",,,,,sub103,percept,6,0,2024-08-07_15h04.46.095,ASRT_percept,2023.2.3,141.156011269011,2024-08-07 15h05.17.327586 +0800,,,
"",0,0,1,3,red,sequences/sub103_practice_sequence_00.csv,"","",,,,,,,,,0,0,0,0,0,4,4,65,,,,,,,,,,,,,,,,,,,,,172.687699399999,,,,,,,"",,"",,,,172.6822691,172.687699399999,172.687699399999,172.8893362,173.1408302,3,1,0.447206899999401,None,173.141405699999,173.1489556,173.1489556,173.3542755,173.56266,173.557045699999,173.5570803,173.56266,174.2579446,,,,,,,"",,"",,,,,,"",,"",,,,,,,"",,"",,,,,"",,"",,,,,,"",,,,,,,,,,"",,"",,,,,sub103,percept,6,0,2024-08-07_15h04.46.095,ASRT_percept,2023.2.3,141.156011269011,2024-08-07 15h05.17.327586 +0800,,,
"",3,270,0,4,red,sequences/sub103_practice_sequence_00.csv,"","",,,,,,,,,0,0,0,0,0,5,5,27,,,,,,,,,,,,,,,,,,,,,174.2641305,,,,,,,"",,"",,,,174.2584679,174.2641305,174.2641305,174.4660429,174.9398857,4,1,0.669016799999554,None,174.9407045,174.9460154,174.9460154,175.1548121,175.361170499999,175.3556708,175.3557102,175.361170499999,176.0563796,,,,,,,"",,"",,,,,,"",,"",,,,,,,"",,"",,,,,"",,"",,,,,,"",,,,,,,,,,"",,"",,,,,sub103,percept,6,0,2024-08-07_15h04.46.095,ASRT_percept,2023.2.3,141.156011269011,2024-08-07 15h05.17.327586 +0800,,,
"",3,270,0,4,red,sequences/sub103_practice_sequence_00.csv,"","",,,,,,,,,0,0,0,0,0,6,6,32,,,,,,,,,,,,,,,,,,,,,176.062663299999,,,,,,,"",,"",,,,176.057231,176.062663299999,176.062663299999,176.264021,176.6421903,4,1,0.571411300000364,None,176.6427477,176.649341599999,176.649341599999,176.854766699999,177.0626157,177.0570094,177.0570498,177.0626157,177.757603999999,,,,,,,"",,"",,,,,,"",,"",,,,,,,"",,"",,,,,"",,"",,,,,,"",,,,,,,,,,"",,"",,,,,sub103,percept,6,0,2024-08-07_15h04.46.095,ASRT_percept,2023.2.3,141.156011269011,2024-08-07 15h05.17.327586 +0800,,,
"",1,90,2,2,red,sequences/sub103_practice_sequence_00.csv,"","",,,,,,,,,0,0,0,0,0,7,7,50,,,,,,,,,,,,,,,,,,,,,177.764771499999,,,,,,,"",,"",,,,177.758285,177.764771499999,177.764771499999,177.9655243,178.371555299999,2,1,0.604198399999405,None,178.3720926,178.3775115,178.3775115,178.5836699,178.791893099999,178.7867233,178.786765299999,178.791893099999,179.4876364,179.493794399999,,,,,,"",,"",,,,,,"",,"",,,,,,,"",,"",,,,,"",,"",,,,,,"",,,,,,,,,,"",,"",,,,,sub103,percept,6,0,2024-08-07_15h04.46.095,ASRT_percept,2023.2.3,141.156011269011,2024-08-07 15h05.17.327586 +0800,,,
"",1,90,2,2,red,sequences/sub103_practice_sequence_00.csv,"","",,,,,,,,,0,0,0,0,0,8,8,11,,,,,,,,,,,,,,,,,,,,,179.493794399999,,,,,,,"",,"",,,,179.488124099999,179.493794399999,179.493794399999,179.6945047,180.071435999999,2,1,0.573069299999588,None,180.072072299999,180.0773493,180.0773493,180.285051,180.4931062,180.4874978,180.487536199999,180.4931062,181.188343,,,,,,,"",,"",,,,,,"",,"",,,,,,,"",,"",,,,,"",,"",,,,,,"",,,,,,,,,,"",,"",,,,,sub103,percept,6,0,2024-08-07_15h04.46.095,ASRT_percept,2023.2.3,141.156011269011,2024-08-07 15h05.17.327586 +0800,,,
"",2,180,3,1,red,sequences/sub103_practice_sequence_00.csv,"","",,,,,,,,,0,0,0,0,0,9,9,42,,,,,,,,,,,,,,,,,,,,,181.1945148,,,,,,,"",,"",,,,181.1889425,181.1945148,181.1945148,181.3959467,181.7734022,1,1,0.5719296999996,None,181.774081099999,181.781392399999,181.781392399999,181.986444499999,182.1950467,182.1882422,182.1882722,182.1950467,182.889335,,,,,,,"",,"",,,,,,"",,"",,,,,,,"",,"",,,,,"",,"",,,,,,"",,,,,,,,,,"",,"",,,,,sub103,percept,6,0,2024-08-07_15h04.46.095,ASRT_percept,2023.2.3,141.156011269011,2024-08-07 15h05.17.327586 +0800,,,
"",0,0,1,3,red,sequences/sub103_practice_sequence_00.csv,"","",,,,,,,,,0,0,0,0,0,10,10,40,,,,,,,,,,,,,,,,,,,,,182.895844,,,,,,,"",,"",,,,182.8898758,182.895844,182.895844,183.097304999999,183.4051076,3,1,0.506942299999537,None,183.405677799999,183.4118221,183.4118221,183.6180285,183.827048499999,183.821288,183.821328499999,183.827048499999,184.522247399999,184.5281156,,,,,,"",,"",,,,,,"",,"",,,,,,,"",,"",,,,,"",,"",,,,,,"",,,,,,,,,,"",,"",,,,,sub103,percept,6,0,2024-08-07_15h04.46.095,ASRT_percept,2023.2.3,141.156011269011,2024-08-07 15h05.17.327586 +0800,,,
"",3,270,0,4,red,sequences/sub103_practice_sequence_00.csv,"","",,,,,,,,,0,0,0,0,0,11,11,69,,,,,,,,,,,,,,,,,,,,,184.5281156,,,,,,,"",,"",,,,184.5229006,184.5281156,184.5281156,184.7297125,185.0188732,4,1,0.486795200000415,None,185.0194434,185.0254242,185.0254242,185.2296387,185.437744899999,185.431584299999,185.4316204,185.437744899999,186.1327076,,,,,,,"",,"",,,,,,"",,"",,,,,,,"",,"",,,,,"",,"",,,,,,"",,,,,,,,,,"",,"",,,,,sub103,percept,6,0,2024-08-07_15h04.46.095,ASRT_percept,2023.2.3,141.156011269011,2024-08-07 15h05.17.327586 +0800,,,
"",3,270,0,4,red,sequences/sub103_practice_sequence_00.csv,"","",,,,,,,,,0,0,0,0,0,12,12,73,,,,,,,,,,,,,,,,,,,,,186.140002499999,,,,,,,"",,"",,,,186.1334619,186.140002499999,186.140002499999,186.3406998,186.641535199999,4,1,0.498152500000288,None,186.64212,186.6489271,186.6489271,186.854098899999,187.0624622,187.057180299999,187.057225699999,187.0624622,187.7573629,,,,,,,"",,"",,,,,,"",,"",,,,,,,"",,"",,,,,"",,"",,,,,,"",,,,,,,,,,"",,"",,,,,sub103,percept,6,0,2024-08-07_15h04.46.095,ASRT_percept,2023.2.3,141.156011269011,2024-08-07 15h05.17.327586 +0800,,,
"",0,0,1,3,red,sequences/sub103_practice_sequence_00.csv,"","",,,,,,,,,0,0,0,0,0,13,13,30,,,,,,,,,,,,,,,,,,,,,187.764231499999,,,,,,,"",,"",,,,187.757948099999,187.764231499999,187.764231499999,187.965496299999,188.2017434,3,1,0.432061699999395,None,188.202200299999,188.2078068,188.2078068,188.4170227,188.6252608,188.6196675,188.619715,188.6252608,189.3204171,,,,,,,"",,"",,,,,,"",,"",,,,,,,"",,"",,,,,"",,"",,,,,,"",,,,,,,,,,"",,"",,,,,sub103,percept,6,0,2024-08-07_15h04.46.095,ASRT_percept,2023.2.3,141.156011269011,2024-08-07 15h05.17.327586 +0800,,,
"",1,90,2,2,red,sequences/sub103_practice_sequence_00.csv,"","",,,,,,,,,0,0,0,0,0,14,14,81,,,,,,,,,,,,,,,,,,,,,189.3263538,,,,,,,"",,"",,,,189.321034,189.3263538,189.3263538,189.5279707,189.7172954,2,1,0.384527000000162,None,189.7179661,189.7243082,189.7243082,189.930487799999,190.1391057,190.1338514,190.133902,190.1391057,190.834451899999,190.8401828,,,,,,"",,"",,,,,,"",,"",,,,,,,"",,"",,,,,"",,"",,,,,,"",,,,,,,,,,"",,"",,,,,sub103,percept,6,0,2024-08-07_15h04.46.095,ASRT_percept,2023.2.3,141.156011269011,2024-08-07 15h05.17.327586 +0800,,,
"",2,180,3,1,red,sequences/sub103_practice_sequence_00.csv,"","",,,,,,,,,0,0,0,0,0,15,15,48,,,,,,,,,,,,,,,,,,,,,190.8401828,,,,,,,"",,"",,,,190.8352768,190.8401828,190.8401828,191.0419163,191.321289099999,1,1,0.477578200000608,None,191.321851799999,191.326292199999,191.326292199999,191.5347168,191.743344099999,191.7375046,191.7375432,191.743344099999,192.437816199999,,,,,,,"",,"",,,,,,"",,"",,,,,,,"",,"",,,,,"",,"",,,,,,"",,,,,,,,,,"",,"",,,,,sub103,percept,6,0,2024-08-07_15h04.46.095,ASRT_percept,2023.2.3,141.156011269011,2024-08-07 15h05.17.327586 +0800,,,
"",1,90,2,2,red,sequences/sub103_practice_sequence_00.csv,"","",,,,,,,,,0,0,0,0,0,16,16,55,,,,,,,,,,,,,,,,,,,,,192.445006299999,,,,,,,"",,"",,,,192.438459399999,192.445006299999,192.445006299999,192.6456772,193.0860341,2,1,0.633997699999782,None,193.0869183,193.0929006,193.0929006,193.298607899999,193.50702,193.50069,193.500724699999,193.50702,194.2016624,,,,,,,"",,"",,,,,,"",,"",,,,,,,"",,"",,,,,"",,"",,,,,,"",,,,,,,,,,"",,"",,,,,sub103,percept,6,0,2024-08-07_15h04.46.095,ASRT_percept,2023.2.3,141.156011269011,2024-08-07 15h05.17.327586 +0800,,,
"",1,90,2,2,red,sequences/sub103_practice_sequence_00.csv,"","",,,,,,,,,0,0,0,0,0,17,17,63,,,,,,,,,,,,,,,,,,,,,194.2082518,,,,,,,"",,"",,,,194.202307699999,194.2082518,194.2082518,194.4095461,194.7250323,2,1,0.513128900000083,None,194.7256618,194.7327718,194.7327718,194.9375088,195.145688799999,195.1396153,195.1396405,195.145688799999,195.840819999999,,,,,,,"",,"",,,,,,"",,"",,,,,,,"",,"",,,,,"",,"",,,,,,"",,,,,,,,,,"",,"",,,,,sub103,percept,6,0,2024-08-07_15h04.46.095,ASRT_percept,2023.2.3,141.156011269011,2024-08-07 15h05.17.327586 +0800,,,
"",2,180,3,1,red,sequences/sub103_practice_sequence_00.csv,"","",,,,,,,,,0,0,0,0,0,18,18,20,,,,,,,,,,,,,,,,,,,,,195.847729499999,,,,,,,"",,"",,,,195.8415765,195.847729499999,195.847729499999,196.048460999999,196.3496121,1,1,0.495229099999961,None,196.350321999999,196.3566408,196.3566408,196.5626404,196.7703987,196.7644747,196.764506799999,196.7703987,197.4652612,,,,,,,"",,"",,,,,,"",,"",,,,,,,"",,"",,,,,"",,"",,,,,,"",,,,,,,,,,"",,"",,,,,sub103,percept,6,0,2024-08-07_15h04.46.095,ASRT_percept,2023.2.3,141.156011269011,2024-08-07 15h05.17.327586 +0800,,,
"",1,90,2,2,red,sequences/sub103_practice_sequence_00.csv,"","",,,,,,,,,0,0,0,0,0,19,19,80,,,,,,,,,,,,,,,,,,,,,197.4722377,,,,,,,"",,"",,,,197.4659569,197.4722377,197.4722377,197.673536599999,198.224626599999,2,1,0.748820800000431,None,198.225277699999,198.2312486,198.2312486,198.4378072,198.6456548,198.6396162,198.639655399999,198.6456548,199.3405125,,,,,,,"",,"",,,,,,"",,"",,,,,,,"",,"",,,,,"",,"",,,,,,"",,,,,,,,,,"",,"",,,,,sub103,percept,6,0,2024-08-07_15h04.46.095,ASRT_percept,2023.2.3,141.156011269011,2024-08-07 15h05.17.327586 +0800,,,
"",1,90,2,2,red,sequences/sub103_practice_sequence_00.csv,"","",,,,,,,,,0,0,0,0,0,20,20,58,,,,,,,,,,,,,,,,,,,,,199.347376899999,,,,,,,"",,"",,,,199.341060299999,199.347376899999,199.347376899999,199.5484185,199.795131,2,1,0.443963300000178,None,199.7957238,199.8007344,199.8007344,200.0069169,200.2148999,200.209504099999,200.2095447,200.2148999,200.9097379,,,,,,,"",,"",,,,,,"",,"",,,,,,,"",,"",,,,,"",,"",,,,,,"",,,,,,,,,,"",,"",,,,,sub103,percept,6,0,2024-08-07_15h04.46.095,ASRT_percept,2023.2.3,141.156011269011,2024-08-07 15h05.17.327586 +0800,,,
"",1,90,2,2,red,sequences/sub103_practice_sequence_00.csv,"","",,,,,,,,,0,0,0,0,0,21,21,53,,,,,,,,,,,,,,,,,,,,,200.9172124,,,,,,,"",,"",,,,200.9106351,200.9172124,200.9172124,201.1180746,201.357144,2,1,0.437037600000622,None,201.3576933,201.3628672,201.3628672,201.569508699999,201.7775504,201.7720445,201.772091,201.7775504,202.472887,,,,,,,"",,"",,,,,,"",,"",,,,,,,"",,"",,,,,"",,"",,,,,,"",,,,,,,,,,"",,"",,,,,sub103,percept,6,0,2024-08-07_15h04.46.095,ASRT_percept,2023.2.3,141.156011269011,2024-08-07 15h05.17.327586 +0800,,,
"",1,90,2,2,red,sequences/sub103_practice_sequence_00.csv,"","",,,,,,,,,0,0,0,0,0,22,22,71,,,,,,,,,,,,,,,,,,,,,202.4788965,,,,,,,"",,"",,,,202.4735015,202.4788965,202.4788965,202.680678899999,202.870895499999,2,1,0.385406100000182,None,202.8718012,202.8785852,202.8785852,203.0832698,203.2914571,203.2857237,203.2857656,203.2914571,203.9861135,,,,,,,"",,"",,,,,,"",,"",,,,,,,"",,"",,,,,"",,"",,,,,,"",,,,,,,,,,"",,"",,,,,sub103,percept,6,0,2024-08-07_15h04.46.095,ASRT_percept,2023.2.3,141.156011269011,2024-08-07 15h05.17.327586 +0800,,,
"",3,270,0,4,red,sequences/sub103_practice_sequence_00.csv,"","",,,,,,,,,0,0,0,0,0,23,23,76,,,,,,,,,,,,,,,,,,,,,203.9929246,,,,,,,"",,"",,,,203.9867846,203.9929246,203.9929246,204.1946585,204.4817843,4,1,0.485518899999988,None,204.4826253,204.4881323,204.4881323,204.6945,204.902733399999,204.8969276,204.8969705,204.902733399999,205.597210299999,,,,,,,"",,"",,,,,,"",,"",,,,,,,"",,"",,,,,"",,"",,,,,,"",,,,,,,,,,"",,"",,,,,sub103,percept,6,0,2024-08-07_15h04.46.095,ASRT_percept,2023.2.3,141.156011269011,2024-08-07 15h05.17.327586 +0800,,,
"",2,180,3,1,red,sequences/sub103_practice_sequence_00.csv,"","",,,,,,,,,0,0,0,0,0,24,24,70,,,,,,,,,,,,,,,,,,,,,205.603916499999,,,,,,,"",,"",,,,205.597738699999,205.603916499999,205.603916499999,205.8060064,206.128322799999,1,1,0.516076099999737,None,206.1290903,206.1387098,206.1387098,206.3397606,206.548817899999,206.5439296,206.5439753,206.548817899999,207.2441242,207.251223499999,,,,,,"",,"",,,,,,"",,"",,,,,,,"",,"",,,,,"",,"",,,,,,"",,,,,,,,,,"",,"",,,,,sub103,percept,6,0,2024-08-07_15h04.46.095,ASRT_percept,2023.2.3,141.156011269011,2024-08-07 15h05.17.327586 +0800,,,
"",2,180,3,1,red,sequences/sub103_practice_sequence_00.csv,"","",,,,,,,,,0,0,0,0,0,25,25,2,,,,,,,,,,,,,,,,,,,,,207.251223499999,,,,,,,"",,"",,,,207.2447235,207.251223499999,207.251223499999,207.4508332,207.655132,1,1,0.395849499999713,None,207.6559118,207.6618712,207.6618712,207.8678516,208.0761604,208.070163099999,208.070198599999,208.0761604,208.7708979,,,,,,,"",,"",,,,,,"",,"",,,,,,,"",,"",,,,,"",,"",,,,,,"",,,,,,,,,,"",,"",,,,,sub103,percept,6,0,2024-08-07_15h04.46.095,ASRT_percept,2023.2.3,141.156011269011,2024-08-07 15h05.17.327586 +0800,,,
"",2,180,3,1,red,sequences/sub103_practice_sequence_00.csv,"","",,,,,,,,,0,0,0,0,0,26,26,43,,,,,,,,,,,,,,,,,,,,,208.7772342,,,,,,,"",,"",,,,208.7715045,208.7772342,208.7772342,208.9793265,209.1893271,1,1,0.40470170000026,None,209.1900393,209.1958421,209.1958421,209.402743,209.6108911,209.6053342,209.6053778,209.6108911,210.3072181,,,,,,,"",,"",,,,,,"",,"",,,,,,,"",,"",,,,,"",,"",,,,,,"",,,,,,,,,,"",,"",,,,,sub103,percept,6,0,2024-08-07_15h04.46.095,ASRT_percept,2023.2.3,141.156011269011,2024-08-07 15h05.17.327586 +0800,,,
"",3,270,0,4,red,sequences/sub103_practice_sequence_00.csv,"","",,,,,,,,,0,0,0,0,0,27,27,19,,,,,,,,,,,,,,,,,,,,,210.318040499999,,,,,,,"",,"",,,,210.3080836,210.318040499999,210.318040499999,210.5211294,210.762167399999,4,1,0.440134899999975,None,210.7629944,210.7723146,210.7723146,210.971598399999,211.181471,211.1751041,211.175162799999,211.181471,211.8760618,211.8827734,,,,,,"",,"",,,,,,"",,"",,,,,,,"",,"",,,,,"",,"",,,,,,"",,,,,,,,,,"",,"",,,,,sub103,percept,6,0,2024-08-07_15h04.46.095,ASRT_percept,2023.2.3,141.156011269011,2024-08-07 15h05.17.327586 +0800,,,
"",2,180,3,1,red,sequences/sub103_practice_sequence_00.csv,"","",,,,,,,,,0,0,0,0,0,28,28,23,,,,,,,,,,,,,,,,,,,,,211.8827734,,,,,,,"",,"",,,,211.876778299999,211.8827734,211.8827734,212.0834336,212.3512022,1,1,0.463534700000309,None,212.3522039,212.3610877,212.3610877,212.5621174,212.7709299,212.765699,212.7657577,212.7709299,213.4653075,213.4722108,,,,,,"",,"",,,,,,"",,"",,,,,,,"",,"",,,,,"",,"",,,,,,"",,,,,,,,,,"",,"",,,,,sub103,percept,6,0,2024-08-07_15h04.46.095,ASRT_percept,2023.2.3,141.156011269011,2024-08-07 15h05.17.327586 +0800,,,
"",0,0,1,3,red,sequences/sub103_practice_sequence_00.csv,"","",,,,,,,,,0,0,0,0,0,29,29,75,,,,,,,,,,,,,,,,,,,,,213.4722108,,,,,,,"",,"",,,,213.465842799999,213.4722108,213.4722108,213.67313,214.0032557,3,1,0.52688820000003,None,214.0039498,214.010878,214.010878,214.215010399999,214.4235315,214.4179844,214.418037599999,214.4235315,215.120929,,,,,,,"",,"",,,,,,"",,"",,,,,,,"",,"",,,,,"",,"",,,,,,"",,,,,,,,,,"",,"",,,,,sub103,percept,6,0,2024-08-07_15h04.46.095,ASRT_percept,2023.2.3,141.156011269011,2024-08-07 15h05.17.327586 +0800,,,
"",2,180,3,1,red,sequences/sub103_practice_sequence_00.csv,"","",,,,,,,,,0,0,0,0,0,30,30,49,,,,,,,,,,,,,,,,,,,,,215.1259227,,,,,,,"",,"",,,,215.121414599999,215.1259227,215.1259227,215.3261087,215.6142417,1,1,0.482720299999528,None,215.6150503,215.623919,215.623919,215.8259921,216.034137799999,216.0288996,216.0289421,216.034137799999,216.729688099999,216.736351799999,,,,,,"",,"",,,,,,"",,"",,,,,,,"",,"",,,,,"",,"",,,,,,"",,,,,,,,,,"",,"",,,,,sub103,percept,6,0,2024-08-07_15h04.46.095,ASRT_percept,2023.2.3,141.156011269011,2024-08-07 15h05.17.327586 +0800,,,
"",2,180,3,1,red,sequences/sub103_practice_sequence_00.csv,"","",,,,,,,,,0,0,0,0,0,31,31,18,,,,,,,,,,,,,,,,,,,,,216.736351799999,,,,,,,"",,"",,,,216.7303401,216.736351799999,216.736351799999,216.9373408,217.2044015,1,1,0.458842900000491,None,217.204931599999,217.211792,217.211792,217.4198074,217.6285276,217.6200892,217.620155699999,217.6285276,218.3294117,,,,,,,"",,"",,,,,,"",,"",,,,,,,"",,"",,,,,"",,"",,,,,,"",,,,,,,,,,"",,"",,,,,sub103,percept,6,0,2024-08-07_15h04.46.095,ASRT_percept,2023.2.3,141.156011269011,2024-08-07 15h05.17.327586 +0800,,,
"",1,90,2,2,red,sequences/sub103_practice_sequence_00.csv,"","",,,,,,,,,0,0,0,0,0,32,32,33,,,,,,,,,,,,,,,,,,,,,218.3425394,,,,,,,"",,"",,,,218.330567399999,218.3425394,218.3425394,218.540288599999,218.850421,4,0,0.499795800000356,None,218.8512727,218.8628091,218.8628091,219.1560559,219.3604201,219.354179299999,219.3542135,219.3604201,220.0557429,,,,,,,"",,"",,,,,,"",,"",,,,,,,"",,"",,,,,"",,"",,,,,,"",,,,,,,,,,"",,"",,,,,sub103,percept,6,0,2024-08-07_15h04.46.095,ASRT_percept,2023.2.3,141.156011269011,2024-08-07 15h05.17.327586 +0800,,,
"",0,0,1,3,red,sequences/sub103_practice_sequence_00.csv,"","",,,,,,,,,0,0,0,0,0,33,33,77,,,,,,,,,,,,,,,,,,,,,220.062701999999,,,,,,,"",,"",,,,220.056454699999,220.062701999999,220.062701999999,220.266787699999,220.5489625,3,1,0.483590499999991,None,220.5492374,220.555275,220.555275,220.7631493,220.9716799,220.965815199999,220.9658647,220.9716799,221.6667914,,,,,,,"",,"",,,,,,"",,"",,,,,,,"",,"",,,,,"",,"",,,,,,"",,,,,,,,,,"",,"",,,,,sub103,percept,6,0,2024-08-07_15h04.46.095,ASRT_percept,2023.2.3,141.156011269011,2024-08-07 15h05.17.327586 +0800,,,
"",0,0,1,3,red,sequences/sub103_practice_sequence_00.csv,"","",,,,,,,,,0,0,0,0,0,34,34,59,,,,,,,,,,,,,,,,,,,,,221.6736376,,,,,,,"",,"",,,,221.667805999999,221.6736376,221.6736376,221.8753725,222.295999999999,3,1,0.618774300000041,None,222.2968788,222.3039554,222.3039554,222.506022799999,222.714675499999,222.709750399999,222.709822299999,222.714675499999,223.4105915,223.4200474,,,,,,"",,"",,,,,,"",,"",,,,,,,"",,"",,,,,"",,"",,,,,,"",,,,,,,,,,"",,"",,,,,sub103,percept,6,0,2024-08-07_15h04.46.095,ASRT_percept,2023.2.3,141.156011269011,2024-08-07 15h05.17.327586 +0800,,,
"",0,0,1,3,red,sequences/sub103_practice_sequence_00.csv,"","",,,,,,,,,0,0,0,0,0,35,35,68,,,,,,,,,,,,,,,,,,,,,223.4200474,,,,,,,"",,"",,,,223.4116273,223.4200474,223.4200474,223.624597499999,223.9220224,3,1,0.497626000000309,None,223.9234546,223.9341551,223.9341551,224.131191099999,224.3401267,224.3344558,224.3345068,224.3401267,225.0351493,225.0409192,,,,,,"",,"",,,,,,"",,"",,,,,,,"",,"",,,,,"",,"",,,,,,"",,,,,,,,,,"",,"",,,,,sub103,percept,6,0,2024-08-07_15h04.46.095,ASRT_percept,2023.2.3,141.156011269011,2024-08-07 15h05.17.327586 +0800,,,
"",3,270,0,4,red,sequences/sub103_practice_sequence_00.csv,"","",,,,,,,,,0,0,0,0,0,36,36,79,,,,,,,,,,,,,,,,,,,,,225.0409192,,,,,,,"",,"",,,,225.035907,225.0409192,225.0409192,225.242490799999,225.5296041,4,1,0.484688700000334,None,225.5304473,225.5372209,225.5372209,225.7422126,225.9506499,225.944609,225.9446473,225.9506499,226.645460299999,,,,,,,"",,"",,,,,,"",,"",,,,,,,"",,"",,,,,"",,"",,,,,,"",,,,,,,,,,"",,"",,,,,sub103,percept,6,0,2024-08-07_15h04.46.095,ASRT_percept,2023.2.3,141.156011269011,2024-08-07 15h05.17.327586 +0800,,,
"",3,270,0,4,red,sequences/sub103_practice_sequence_00.csv,"","",,,,,,,,,0,0,0,0,0,37,37,60,,,,,,,,,,,,,,,,,,,,,226.6518888,,,,,,,"",,"",,,,226.6460314,226.6518888,226.6518888,226.8537523,227.134663899999,4,1,0.480095300000357,None,227.1353706,227.1410386,227.1410386,227.346713999999,227.554993199999,227.5493017,227.549348099999,227.554993199999,228.2500395,,,,,,,"",,"",,,,,,"",,"",,,,,,,"",,"",,,,,"",,"",,,,,,"",,,,,,,,,,"",,"",,,,,sub103,percept,6,0,2024-08-07_15h04.46.095,ASRT_percept,2023.2.3,141.156011269011,2024-08-07 15h05.17.327586 +0800,,,
"",0,0,1,3,red,sequences/sub103_practice_sequence_00.csv,"","",,,,,,,,,0,0,0,0,0,38,38,1,,,,,,,,,,,,,,,,,,,,,228.2598389,,,,,,,"",,"",,,,228.2509378,228.2598389,228.2598389,228.464553,228.710596999999,3,1,0.443417800000134,None,228.7112916,228.717591,228.717591,228.923304,229.131181299999,229.126026299999,229.1260775,229.131181299999,229.8264109,,,,,,,"",,"",,,,,,"",,"",,,,,,,"",,"",,,,,"",,"",,,,,,"",,,,,,,,,,"",,"",,,,,sub103,percept,6,0,2024-08-07_15h04.46.095,ASRT_percept,2023.2.3,141.156011269011,2024-08-07 15h05.17.327586 +0800,,,
"",1,90,2,2,red,sequences/sub103_practice_sequence_00.csv,"","",,,,,,,,,0,0,0,0,0,39,39,78,,,,,,,,,,,,,,,,,,,,,229.8362011,,,,,,,"",,"",,,,229.827236,229.8362011,229.8362011,230.043675999999,230.216984,2,1,0.374384499999906,None,230.2178254,230.2244012,230.2244012,230.4301369,230.638457399999,230.632689999999,230.6327369,230.638457399999,231.333398199999,,,,,,,"",,"",,,,,,"",,"",,,,,,,"",,"",,,,,"",,"",,,,,,"",,,,,,,,,,"",,"",,,,,sub103,percept,6,0,2024-08-07_15h04.46.095,ASRT_percept,2023.2.3,141.156011269011,2024-08-07 15h05.17.327586 +0800,,,
"",1,90,2,2,red,sequences/sub103_practice_sequence_00.csv,"","",,,,,,,,,0,0,0,0,0,40,40,15,,,,,,,,,,,,,,,,,,,,,231.3416858,,,,,,,"",,"",,,,231.3341519,231.3416858,231.3416858,231.5413023,231.858858199999,2,1,0.506929599999239,None,231.8591038,231.8616979,231.8616979,232.0687227,232.2771439,232.271377499999,232.271423499999,232.2771439,232.9721006,,,,,,,"",,"",,,,,,"",,"",,,,,,,"",,"",,,,,"",,"",,,,,,"",,,,,,,,,,"",,"",,,,,sub103,percept,6,0,2024-08-07_15h04.46.095,ASRT_percept,2023.2.3,141.156011269011,2024-08-07 15h05.17.327586 +0800,,,
"",0,0,1,3,red,sequences/sub103_practice_sequence_00.csv,"","",,,,,,,,,0,0,0,0,0,41,41,12,,,,,,,,,,,,,,,,,,,,,232.9781564,,,,,,,"",,"",,,,232.9727753,232.9781564,232.9781564,233.179900499999,233.4950158,3,1,0.512067700000443,None,233.495707,233.5019225,233.5019225,233.7095353,233.9160305,233.9102667,233.9103091,233.9160305,234.611776299999,,,,,,,"",,"",,,,,,"",,"",,,,,,,"",,"",,,,,"",,"",,,,,,"",,,,,,,,,,"",,"",,,,,sub103,percept,6,0,2024-08-07_15h04.46.095,ASRT_percept,2023.2.3,141.156011269011,2024-08-07 15h05.17.327586 +0800,,,
"",3,270,0,4,red,sequences/sub103_practice_sequence_00.csv,"","",,,,,,,,,0,0,0,0,0,42,42,17,,,,,,,,,,,,,,,,,,,,,234.620472799999,,,,,,,"",,"",,,,234.6125813,234.620472799999,234.620472799999,234.8255018,235.0721777,4,1,0.448843900000611,None,235.072961299999,235.0820322,235.0820322,235.284259399999,235.4920291,235.4859834,235.4860208,235.4920291,236.186922,,,,,,,"",,"",,,,,,"",,"",,,,,,,"",,"",,,,,"",,"",,,,,,"",,,,,,,,,,"",,"",,,,,sub103,percept,6,0,2024-08-07_15h04.46.095,ASRT_percept,2023.2.3,141.156011269011,2024-08-07 15h05.17.327586 +0800,,,
"",0,0,1,3,red,sequences/sub103_practice_sequence_00.csv,"","",,,,,,,,,0,0,0,0,0,43,43,3,,,,,,,,,,,,,,,,,,,,,236.1944053,,,,,,,"",,"",,,,236.1876369,236.1944053,236.1944053,236.3959614,236.592156299999,3,1,0.392121700000644,None,236.5930331,236.600223699999,236.600223699999,236.8049869,237.0130099,237.0072636,237.0073045,237.0130099,237.7077191,,,,,,,"",,"",,,,,,"",,"",,,,,,,"",,"",,,,,"",,"",,,,,,"",,,,,,,,,,"",,"",,,,,sub103,percept,6,0,2024-08-07_15h04.46.095,ASRT_percept,2023.2.3,141.156011269011,2024-08-07 15h05.17.327586 +0800,,,
"",1,90,2,2,red,sequences/sub103_practice_sequence_00.csv,"","",,,,,,,,,0,0,0,0,0,44,44,84,,,,,,,,,,,,,,,,,,,,,237.7140374,,,,,,,"",,"",,,,237.708675299999,237.7140374,237.7140374,237.9163025,238.1407941,2,1,0.420482300000003,None,238.1416073,238.1480187,238.1480187,238.3525425,238.5630938,238.5574208,238.5574732,238.5630938,239.2576886,239.2667715,,,,,,"",,"",,,,,,"",,"",,,,,,,"",,"",,,,,"",,"",,,,,,"",,,,,,,,,,"",,"",,,,,sub103,percept,6,0,2024-08-07_15h04.46.095,ASRT_percept,2023.2.3,141.156011269011,2024-08-07 15h05.17.327586 +0800,,,
"",0,0,1,3,red,sequences/sub103_practice_sequence_00.csv,"","",,,,,,,,,0,0,0,0,0,45,45,8,,,,,,,,,,,,,,,,,,,,,239.2667715,,,,,,,"",,"",,,,239.2586174,239.2667715,239.2667715,239.463919,239.6693095,3,1,0.395005700000183,None,239.6701668,239.6803492,239.6803492,239.8811214,240.0892752,240.0841069,240.0841585,240.0892752,240.784769899999,240.7916908,,,,,,"",,"",,,,,,"",,"",,,,,,,"",,"",,,,,"",,"",,,,,,"",,,,,,,,,,"",,"",,,,,sub103,percept,6,0,2024-08-07_15h04.46.095,ASRT_percept,2023.2.3,141.156011269011,2024-08-07 15h05.17.327586 +0800,,,
"",0,0,1,3,red,sequences/sub103_practice_sequence_00.csv,"","",,,,,,,,,0,0,0,0,0,46,46,31,,,,,,,,,,,,,,,,,,,,,240.7916908,,,,,,,"",,"",,,,240.785347999999,240.7916908,240.7916908,240.992150399999,241.224040399999,3,1,0.426191999999901,None,241.2248544,241.2316279,241.2316279,241.4364569,241.6468123,241.6409188,241.6409845,241.6468123,242.341098999999,242.3491214,,,,,,"",,"",,,,,,"",,"",,,,,,,"",,"",,,,,"",,"",,,,,,"",,,,,,,,,,"",,"",,,,,sub103,percept,6,0,2024-08-07_15h04.46.095,ASRT_percept,2023.2.3,141.156011269011,2024-08-07 15h05.17.327586 +0800,,,
"",1,90,2,2,red,sequences/sub103_practice_sequence_00.csv,"","",,,,,,,,,0,0,0,0,0,47,47,5,,,,,,,,,,,,,,,,,,,,,242.3491214,,,,,,,"",,"",,,,242.3420713,242.3491214,242.3491214,242.555009199999,242.8905369,2,1,0.534728300000097,None,242.8912491,242.899971,242.899971,243.1031174,243.311578299999,243.3057456,243.3057934,243.311578299999,244.006836,,,,,,,"",,"",,,,,,"",,"",,,,,,,"",,"",,,,,"",,"",,,,,,"",,,,,,,,,,"",,"",,,,,sub103,percept,6,0,2024-08-07_15h04.46.095,ASRT_percept,2023.2.3,141.156011269011,2024-08-07 15h05.17.327586 +0800,,,
"",2,180,3,1,red,sequences/sub103_practice_sequence_00.csv,"","",,,,,,,,,0,0,0,0,0,48,48,22,,,,,,,,,,,,,,,,,,,,,244.0140218,,,,,,,"",,"",,,,244.0077289,244.0140218,244.0140218,244.2147174,244.751437,1,1,0.734342600000673,None,244.7523707,244.759987699999,244.759987699999,244.9649485,245.174529299999,245.1678063,245.167865099999,245.174529299999,245.868221,245.8761202,,,,,,"",,"",,,,,,"",,"",,,,,,,"",,"",,,,,"",,"",,,,,,"",,,,,,,,,,"",,"",,,,,sub103,percept,6,0,2024-08-07_15h04.46.095,ASRT_percept,2023.2.3,141.156011269011,2024-08-07 15h05.17.327586 +0800,,,
"",0,0,1,3,red,sequences/sub103_practice_sequence_00.csv,"","",,,,,,,,,0,0,0,0,0,49,49,24,,,,,,,,,,,,,,,,,,,,,245.8761202,,,,,,,"",,"",,,,245.8688704,245.8761202,245.8761202,246.0758227,246.2524661,3,1,0.373209500000485,None,246.2531531,246.2611779,246.2611779,246.464136799999,246.6739969,246.6676526,246.6677128,246.6739969,247.3682521,247.374578,,,,,,"",,"",,,,,,"",,"",,,,,,,"",,"",,,,,"",,"",,,,,,"",,,,,,,,,,"",,"",,,,,sub103,percept,6,0,2024-08-07_15h04.46.095,ASRT_percept,2023.2.3,141.156011269011,2024-08-07 15h05.17.327586 +0800,,,
"",1,90,2,2,red,sequences/sub103_practice_sequence_00.csv,"","",,,,,,,,,0,0,0,0,0,50,50,83,,,,,,,,,,,,,,,,,,,,,247.374578,,,,,,,"",,"",,,,247.368997,247.374578,247.374578,247.5756206,247.751155,2,1,0.372176200000467,None,247.751853,247.760413,247.760413,247.9640936,248.1724402,248.1666341,248.1666808,248.1724402,248.867342,,,,,,,"",,"",,,,,,"",,"",,,,,,,"",,"",,,,,"",,"",,,,,,"",,,,,,,,,,"",,"",,,,,sub103,percept,6,0,2024-08-07_15h04.46.095,ASRT_percept,2023.2.3,141.156011269011,2024-08-07 15h05.17.327586 +0800,,,
"",2,180,3,1,red,sequences/sub103_practice_sequence_00.csv,"","",,,,,,,,,0,0,0,0,0,51,51,72,,,,,,,,,,,,,,,,,,,,,248.8737794,,,,,,,"",,"",,,,248.867984,248.8737794,248.8737794,249.075365899999,249.3510296,1,1,0.473396899999898,None,249.3518101,249.3590794,249.3590794,249.5614716,249.7695109,249.763967899999,249.764001199999,249.7695109,250.4649873,,,,,,,"",,"",,,,,,"",,"",,,,,,,"",,"",,,,,"",,"",,,,,,"",,,,,,,,,,"",,"",,,,,sub103,percept,6,0,2024-08-07_15h04.46.095,ASRT_percept,2023.2.3,141.156011269011,2024-08-07 15h05.17.327586 +0800,,,
"",2,180,3,1,red,sequences/sub103_practice_sequence_00.csv,"","",,,,,,,,,0,0,0,0,0,52,52,34,,,,,,,,,,,,,,,,,,,,,250.472050599999,,,,,,,"",,"",,,,250.4657364,250.472050599999,250.472050599999,250.672535199999,250.8766343,1,1,0.398238000000674,None,250.8773437,250.8877176,250.8877176,251.0899767,251.2976294,251.292054799999,251.2921073,251.2976294,251.9933264,251.999938399999,,,,,,"",,"",,,,,,"",,"",,,,,,,"",,"",,,,,"",,"",,,,,,"",,,,,,,,,,"",,"",,,,,sub103,percept,6,0,2024-08-07_15h04.46.095,ASRT_percept,2023.2.3,141.156011269011,2024-08-07 15h05.17.327586 +0800,,,
"",2,180,3,1,red,sequences/sub103_practice_sequence_00.csv,"","",,,,,,,,,0,0,0,0,0,53,53,47,,,,,,,,,,,,,,,,,,,,,251.999938399999,,,,,,,"",,"",,,,251.9940435,251.999938399999,251.999938399999,252.200430299999,252.4580965,1,1,0.447142899999562,None,252.4590668,252.4648515,252.4648515,252.6657353,252.8738372,252.8679402,252.867984,252.8738372,253.5682245,,,,,,,"",,"",,,,,,"",,"",,,,,,,"",,"",,,,,"",,"",,,,,,"",,,,,,,,,,"",,"",,,,,sub103,percept,6,0,2024-08-07_15h04.46.095,ASRT_percept,2023.2.3,141.156011269011,2024-08-07 15h05.17.327586 +0800,,,
"",2,180,3,1,red,sequences/sub103_practice_sequence_00.csv,"","",,,,,,,,,0,0,0,0,0,54,54,28,,,,,,,,,,,,,,,,,,,,,253.574786499999,,,,,,,"",,"",,,,253.568877899999,253.574786499999,253.574786499999,253.7763684,253.8835462,1,1,0.30484720000004,None,253.8842245,253.889665799999,253.889665799999,254.0960538,254.3044175,254.298975899999,254.299022499999,254.3044175,254.999375699999,,,,,,,"",,"",,,,,,"",,"",,,,,,,"",,"",,,,,"",,"",,,,,,"",,,,,,,,,,"",,"",,,,,sub103,percept,6,0,2024-08-07_15h04.46.095,ASRT_percept,2023.2.3,141.156011269011,2024-08-07 15h05.17.327586 +0800,,,
"",2,180,3,1,red,sequences/sub103_practice_sequence_00.csv,"","",,,,,,,,,0,0,0,0,0,55,55,26,,,,,,,,,,,,,,,,,,,,,255.0061889,,,,,,,"",,"",,,,255.000233899999,255.0061889,255.0061889,255.2070972,255.3231619,1,1,0.31335560000025,None,255.3239972,255.330443999999,255.330443999999,255.5332921,255.7429692,255.736920599999,255.7369683,255.7429692,256.4364398,256.4428557,,,,,,"",,"",,,,,,"",,"",,,,,,,"",,"",,,,,"",,"",,,,,,"",,,,,,,,,,"",,"",,,,,sub103,percept,6,0,2024-08-07_15h04.46.095,ASRT_percept,2023.2.3,141.156011269011,2024-08-07 15h05.17.327586 +0800,,,
"",0,0,1,3,red,sequences/sub103_practice_sequence_00.csv,"","",,,,,,,,,0,0,0,0,0,56,56,64,,,,,,,,,,,,,,,,,,,,,256.4428557,,,,,,,"",,"",,,,256.4370457,256.4428557,256.4428557,256.645028,256.9055682,3,1,0.45968189999985,None,256.9064129,256.9169089,256.9169089,257.1167625,257.325287799999,257.3199298,257.319981199999,257.325287799999,258.020829499999,258.030201699999,,,,,,"",,"",,,,,,"",,"",,,,,,,"",,"",,,,,"",,"",,,,,,"",,,,,,,,,,"",,"",,,,,sub103,percept,6,0,2024-08-07_15h04.46.095,ASRT_percept,2023.2.3,141.156011269011,2024-08-07 15h05.17.327586 +0800,,,
"",3,270,0,4,red,sequences/sub103_practice_sequence_00.csv,"","",,,,,,,,,0,0,0,0,0,57,57,41,,,,,,,,,,,,,,,,,,,,,258.030201699999,,,,,,,"",,"",,,,258.021642299999,258.030201699999,258.030201699999,258.235255799999,258.6148084,4,1,0.579972499999713,None,258.615629999999,258.624102,258.624102,258.8252033,259.033484199999,259.0279523,259.0279983,259.033484199999,259.7294836,,,,,,,"",,"",,,,,,"",,"",,,,,,,"",,"",,,,,"",,"",,,,,,"",,,,,,,,,,"",,"",,,,,sub103,percept,6,0,2024-08-07_15h04.46.095,ASRT_percept,2023.2.3,141.156011269011,2024-08-07 15h05.17.327586 +0800,,,
"",0,0,1,3,red,sequences/sub103_practice_sequence_00.csv,"","",,,,,,,,,0,0,0,0,0,58,58,51,,,,,,,,,,,,,,,,,,,,,259.7369614,,,,,,,"",,"",,,,259.7301637,259.7369614,259.7369614,259.9430533,260.2161627,3,1,0.474754999999277,None,260.2167945,260.2240858,260.2240858,260.4296909,260.6388321,260.6327956,260.6328564,260.6388321,261.333626,,,,,,,"",,"",,,,,,"",,"",,,,,,,"",,"",,,,,"",,"",,,,,,"",,,,,,,,,,"",,"",,,,,sub103,percept,6,0,2024-08-07_15h04.46.095,ASRT_percept,2023.2.3,141.156011269011,2024-08-07 15h05.17.327586 +0800,,,
"",1,90,2,2,red,sequences/sub103_practice_sequence_00.csv,"","",,,,,,,,,0,0,0,0,0,59,59,67,,,,,,,,,,,,,,,,,,,,,261.3419175,,,,,,,"",,"",,,,261.3345728,261.3419175,261.3419175,261.547153799999,261.737904099999,2,1,0.380998499999805,None,261.739062,261.7472695,261.7472695,261.944277,262.1520817,262.1459411,262.1459832,262.1520817,262.846814799999,262.8521861,,,,,,"",,"",,,,,,"",,"",,,,,,,"",,"",,,,,"",,"",,,,,,"",,,,,,,,,,"",,"",,,,,sub103,percept,6,0,2024-08-07_15h04.46.095,ASRT_percept,2023.2.3,141.156011269011,2024-08-07 15h05.17.327586 +0800,,,
"",3,270,0,4,red,sequences/sub103_practice_sequence_00.csv,"","",,,,,,,,,0,0,0,0,0,60,60,35,,,,,,,,,,,,,,,,,,,,,262.8521861,,,,,,,"",,"",,,,262.8475073,262.8521861,262.8521861,263.0543025,263.293416699999,4,1,0.436885299999631,None,263.2942729,263.3000428,263.3000428,263.505923199999,263.7149906,263.7080638,263.7081097,263.7149906,264.4088259,,,,,,,"",,"",,,,,,"",,"",,,,,,,"",,"",,,,,"",,"",,,,,,"",,,,,,,,,,"",,"",,,,,sub103,percept,6,0,2024-08-07_15h04.46.095,ASRT_percept,2023.2.3,141.156011269011,2024-08-07 15h05.17.327586 +0800,,,
"",0,0,1,3,red,sequences/sub103_practice_sequence_00.csv,"","",,,,,,,,,0,0,0,0,0,61,61,46,,,,,,,,,,,,,,,,,,,,,264.4155518,,,,,,,"",,"",,,,264.4094246,264.4155518,264.4155518,264.6167693,264.862028099999,3,1,0.44318099999964,None,264.8627292,264.871675699999,264.871675699999,265.0748929,265.2835445,265.2771868,265.2772288,265.2835445,265.9778631,,,,,,,"",,"",,,,,,"",,"",,,,,,,"",,"",,,,,"",,"",,,,,,"",,,,,,,,,,"",,"",,,,,sub103,percept,6,0,2024-08-07_15h04.46.095,ASRT_percept,2023.2.3,141.156011269011,2024-08-07 15h05.17.327586 +0800,,,
"",1,90,2,2,red,sequences/sub103_practice_sequence_00.csv,"","",,,,,,,,,0,0,0,0,0,62,62,16,,,,,,,,,,,,,,,,,,,,,265.9843698,,,,,,,"",,"",,,,265.978418899999,265.9843698,265.9843698,266.186022899999,266.5006354,2,1,0.509957000000213,None,266.5015238,266.509343199999,266.509343199999,266.7140247,266.9219687,266.9159794,266.9160146,266.9219687,267.6170904,,,,,,,"",,"",,,,,,"",,"",,,,,,,"",,"",,,,,"",,"",,,,,,"",,,,,,,,,,"",,"",,,,,sub103,percept,6,0,2024-08-07_15h04.46.095,ASRT_percept,2023.2.3,141.156011269011,2024-08-07 15h05.17.327586 +0800,,,
"",1,90,2,2,red,sequences/sub103_practice_sequence_00.csv,"","",,,,,,,,,0,0,0,0,0,63,63,14,,,,,,,,,,,,,,,,,,,,,267.6229629,,,,,,,"",,"",,,,267.617801599999,267.6229629,267.6229629,267.8247757,268.090440399999,2,1,0.460492999999588,None,268.0909713,268.0954821,268.0954821,268.3038945,268.513748699999,268.5073846,268.5074318,268.513748699999,269.207399399999,269.2133657,,,,,,"",,"",,,,,,"",,"",,,,,,,"",,"",,,,,"",,"",,,,,,"",,,,,,,,,,"",,"",,,,,sub103,percept,6,0,2024-08-07_15h04.46.095,ASRT_percept,2023.2.3,141.156011269011,2024-08-07 15h05.17.327586 +0800,,,
"",3,270,0,4,red,sequences/sub103_practice_sequence_00.csv,"","",,,,,,,,,0,0,0,0,0,64,64,7,,,,,,,,,,,,,,,,,,,,,269.2133657,,,,,,,"",,"",,,,269.2079022,269.2133657,269.2133657,269.4150972,269.6263754,4,1,0.405219000000216,None,269.6270968,269.6343178,269.6343178,269.838996099999,270.0476143,270.041495099999,270.041547899999,270.0476143,270.7417224,,,,,,,"",,"",,,,,,"",,"",,,,,,,"",,"",,,,,"",,"",,,,,,"",,,,,,,,,,"",,"",,,,,sub103,percept,6,0,2024-08-07_15h04.46.095,ASRT_percept,2023.2.3,141.156011269011,2024-08-07 15h05.17.327586 +0800,,,
"",1,90,2,2,red,sequences/sub103_practice_sequence_00.csv,"","",,,,,,,,,0,0,0,0,0,65,65,54,,,,,,,,,,,,,,,,,,,,,270.748498999999,,,,,,,"",,"",,,,270.742373399999,270.748498999999,270.748498999999,270.950844999999,271.2092999,2,1,0.454432999999881,None,271.2101549,271.2181715,271.2181715,271.4221399,271.6342328,271.6265835,271.626657899999,271.6342328,272.3333379,,,,,,,"",,"",,,,,,"",,"",,,,,,,"",,"",,,,,"",,"",,,,,,"",,,,,,,,,,"",,"",,,,,sub103,percept,6,0,2024-08-07_15h04.46.095,ASRT_percept,2023.2.3,141.156011269011,2024-08-07 15h05.17.327586 +0800,,,
"",3,270,0,4,red,sequences/sub103_practice_sequence_00.csv,"","",,,,,,,,,0,0,0,0,0,66,66,39,,,,,,,,,,,,,,,,,,,,,272.3433651,,,,,,,"",,"",,,,272.334377,272.3433651,272.3433651,272.5470414,272.7879187,4,1,0.435424100000091,None,272.788613,272.7945286,272.7945286,272.9982323,273.2062067,273.2005923,273.200631,273.2062067,273.9011155,,,,,,,"",,"",,,,,,"",,"",,,,,,,"",,"",,,,,"",,"",,,,,,"",,,,,,,,,,"",,"",,,,,sub103,percept,6,0,2024-08-07_15h04.46.095,ASRT_percept,2023.2.3,141.156011269011,2024-08-07 15h05.17.327586 +0800,,,
"",3,270,0,4,red,sequences/sub103_practice_sequence_00.csv,"","",,,,,,,,,0,0,0,0,0,67,67,13,,,,,,,,,,,,,,,,,,,,,273.9078793,,,,,,,"",,"",,,,273.901897,273.9078793,273.9078793,274.1095549,274.398356799999,4,1,0.486515300000065,None,274.399098299999,274.4058503,274.4058503,274.6093575,274.817421299999,274.812326599999,274.812369599999,274.817421299999,275.512537199999,,,,,,,"",,"",,,,,,"",,"",,,,,,,"",,"",,,,,"",,"",,,,,,"",,,,,,,,,,"",,"",,,,,sub103,percept,6,0,2024-08-07_15h04.46.095,ASRT_percept,2023.2.3,141.156011269011,2024-08-07 15h05.17.327586 +0800,,,
"",3,270,0,4,red,sequences/sub103_practice_sequence_00.csv,"","",,,,,,,,,0,0,0,0,0,68,68,21,,,,,,,,,,,,,,,,,,,,,275.520086799999,,,,,,,"",,"",,,,275.5134054,275.520086799999,275.520086799999,275.720562099999,276.0286519,4,1,0.502008800000112,None,276.029428999999,276.0353514,276.0353514,276.2411434,276.4504133,276.444516799999,276.444562199999,276.4504133,277.145080599999,277.151802099999,,,,,,"",,"",,,,,,"",,"",,,,,,,"",,"",,,,,"",,"",,,,,,"",,,,,,,,,,"",,"",,,,,sub103,percept,6,0,2024-08-07_15h04.46.095,ASRT_percept,2023.2.3,141.156011269011,2024-08-07 15h05.17.327586 +0800,,,
"",3,270,0,4,red,sequences/sub103_practice_sequence_00.csv,"","",,,,,,,,,0,0,0,0,0,69,69,38,,,,,,,,,,,,,,,,,,,,,277.151802099999,,,,,,,"",,"",,,,277.1457095,277.151802099999,277.151802099999,277.3522619,277.515899499999,4,1,0.360716700000012,None,277.5167182,277.5244238,277.5244238,277.7277275,277.936409399999,277.9304191,277.9304709,277.936409399999,278.631549299999,278.6382607,,,,,,"",,"",,,,,,"",,"",,,,,,,"",,"",,,,,"",,"",,,,,,"",,,,,,,,,,"",,"",,,,,sub103,percept,6,0,2024-08-07_15h04.46.095,ASRT_percept,2023.2.3,141.156011269011,2024-08-07 15h05.17.327586 +0800,,,
"",1,90,2,2,red,sequences/sub103_practice_sequence_00.csv,"","",,,,,,,,,0,0,0,0,0,70,70,6,,,,,,,,,,,,,,,,,,,,,278.6382607,,,,,,,"",,"",,,,278.6323226,278.6382607,278.6382607,278.8387962,279.133493599999,2,1,0.489266499999758,None,279.1343627,279.1411735,279.1411735,279.3458253,279.5533709,279.5471282,279.5471622,279.5533709,280.2483434,,,,,,,"",,"",,,,,,"",,"",,,,,,,"",,"",,,,,"",,"",,,,,,"",,,,,,,,,,"",,"",,,,,sub103,percept,6,0,2024-08-07_15h04.46.095,ASRT_percept,2023.2.3,141.156011269011,2024-08-07 15h05.17.327586 +0800,,,
"",3,270,0,4,red,sequences/sub103_practice_sequence_00.csv,"","",,,,,,,,,0,0,0,0,0,71,71,36,,,,,,,,,,,,,,,,,,,,,280.2547168,,,,,,,"",,"",,,,280.2489414,280.2547168,280.2547168,280.4563092,280.779142599999,4,1,0.520257000000129,None,280.779923999999,280.7905043,280.7905043,280.9911058,281.1992064,281.193956499999,281.1940031,281.1992064,281.895249499999,,,,,,,"",,"",,,,,,"",,"",,,,,,,"",,"",,,,,"",,"",,,,,,"",,,,,,,,,,"",,"",,,,,sub103,percept,6,0,2024-08-07_15h04.46.095,ASRT_percept,2023.2.3,141.156011269011,2024-08-07 15h05.17.327586 +0800,,,
"",2,180,3,1,red,sequences/sub103_practice_sequence_00.csv,"","",,,,,,,,,0,0,0,0,0,72,72,66,,,,,,,,,,,,,,,,,,,,,281.9020069,,,,,,,"",,"",,,,281.8960755,281.9020069,281.9020069,282.1023774,282.5358921,2,0,0.627452400000038,None,282.536672499999,282.5466466,282.5466466,282.748170399999,282.956824399999,282.951185299999,282.951238,282.956824399999,283.652156,283.6592461,,,,,,"",,"",,,,,,"",,"",,,,,,,"",,"",,,,,"",,"",,,,,,"",,,,,,,,,,"",,"",,,,,sub103,percept,6,0,2024-08-07_15h04.46.095,ASRT_percept,2023.2.3,141.156011269011,2024-08-07 15h05.17.327586 +0800,,,
"",0,0,1,3,red,sequences/sub103_practice_sequence_00.csv,"","",,,,,,,,,0,0,0,0,0,73,73,74,,,,,,,,,,,,,,,,,,,,,283.6592461,,,,,,,"",,"",,,,283.6529873,283.6592461,283.6592461,283.8588314,284.181066,3,1,0.516359000000193,None,284.1817947,284.1912223,284.1912223,284.3934062,284.602038499999,284.596662999999,284.5967051,284.602038499999,285.297653,285.3036496,,,,,,"",,"",,,,,,"",,"",,,,,,,"",,"",,,,,"",,"",,,,,,"",,,,,,,,,,"",,"",,,,,sub103,percept,6,0,2024-08-07_15h04.46.095,ASRT_percept,2023.2.3,141.156011269011,2024-08-07 15h05.17.327586 +0800,,,
"",2,180,3,1,red,sequences/sub103_practice_sequence_00.csv,"","",,,,,,,,,0,0,0,0,0,74,74,57,,,,,,,,,,,,,,,,,,,,,285.3036496,,,,,,,"",,"",,,,285.298345599999,285.3036496,285.3036496,285.505770899999,285.8675944,1,1,0.559711099999731,None,285.868195999999,285.8736984,285.8736984,286.0817781,286.290542,286.2849003,286.2849513,286.290542,286.9850903,,,,,,,"",,"",,,,,,"",,"",,,,,,,"",,"",,,,,"",,"",,,,,,"",,,,,,,,,,"",,"",,,,,sub103,percept,6,0,2024-08-07_15h04.46.095,ASRT_percept,2023.2.3,141.156011269011,2024-08-07 15h05.17.327586 +0800,,,
"",1,90,2,2,red,sequences/sub103_practice_sequence_00.csv,"","",,,,,,,,,0,0,0,0,0,75,75,9,,,,,,,,,,,,,,,,,,,,,286.9923549,,,,,,,"",,"",,,,286.9859099,286.9923549,286.9923549,287.1930234,287.4521066,3,0,0.456067900000562,None,287.4528384,287.4622847,287.4622847,287.6645063,287.8726833,287.8672443,287.8672986,287.8726833,288.5680807,,,,,,,"",,"",,,,,,"",,"",,,,,,,"",,"",,,,,"",,"",,,,,,"",,,,,,,,,,"",,"",,,,,sub103,percept,6,0,2024-08-07_15h04.46.095,ASRT_percept,2023.2.3,141.156011269011,2024-08-07 15h05.17.327586 +0800,,,
"",0,0,1,3,red,sequences/sub103_practice_sequence_00.csv,"","",,,,,,,,,0,0,0,0,0,76,76,25,,,,,,,,,,,,,,,,,,,,,288.5739217,,,,,,,"",,"",,,,288.5686418,288.5739217,288.5739217,288.7757457,289.077482899999,3,1,0.499607000000651,None,289.0782868,289.087722599999,289.087722599999,289.289527,289.4978743,289.4925001,289.4925353,289.4978743,290.1926642,,,,,,,"",,"",,,,,,"",,"",,,,,,,"",,"",,,,,"",,"",,,,,,"",,,,,,,,,,"",,"",,,,,sub103,percept,6,0,2024-08-07_15h04.46.095,ASRT_percept,2023.2.3,141.156011269011,2024-08-07 15h05.17.327586 +0800,,,
"",2,180,3,1,red,sequences/sub103_practice_sequence_00.csv,"","",,,,,,,,,0,0,0,0,0,77,77,29,,,,,,,,,,,,,,,,,,,,,290.199683,,,,,,,"",,"",,,,290.193263499999,290.199683,290.199683,290.4005785,290.5626944,1,1,0.35643059999984,None,290.5633444,290.571586499999,290.571586499999,290.7755117,290.983926999999,290.9784774,290.978519599999,290.983926999999,291.679152899999,291.690911899999,,,,,,"",,"",,,,,,"",,"",,,,,,,"",,"",,,,,"",,"",,,,,,"",,,,,,,,,,"",,"",,,,,sub103,percept,6,0,2024-08-07_15h04.46.095,ASRT_percept,2023.2.3,141.156011269011,2024-08-07 15h05.17.327586 +0800,,,
"",0,0,1,3,red,sequences/sub103_practice_sequence_00.csv,"","",,,,,,,,,0,0,0,0,0,78,78,52,,,,,,,,,,,,,,,,,,,,,291.690911899999,,,,,,,"",,"",,,,291.6803585,291.690911899999,291.690911899999,291.8940619,292.139383199999,3,1,0.440996199999972,None,292.140086699999,292.1477436,292.1477436,292.352087499999,292.5604534,292.5547262,292.5547681,292.5604534,293.255453,293.261581199999,,,,,,"",,"",,,,,,"",,"",,,,,,,"",,"",,,,,"",,"",,,,,,"",,,,,,,,,,"",,"",,,,,sub103,percept,6,0,2024-08-07_15h04.46.095,ASRT_percept,2023.2.3,141.156011269011,2024-08-07 15h05.17.327586 +0800,,,
"",3,270,0,4,red,sequences/sub103_practice_sequence_00.csv,"","",,,,,,,,,0,0,0,0,0,79,79,0,,,,,,,,,,,,,,,,,,,,,293.261581199999,,,,,,,"",,"",,,,293.255919499999,293.261581199999,293.261581199999,293.4634355,293.7382346,4,1,0.473130899999887,None,293.739060299999,293.7463375,293.7463375,293.9494798,294.1580629,294.151617699999,294.151659,294.1580629,294.8523254,,,,,,,"",,"",,,,,,"",,"",,,,,,,"",,"",,,,,"",,"",,,,,,"",,,,,,,,,,"",,"",,,,,sub103,percept,6,0,2024-08-07_15h04.46.095,ASRT_percept,2023.2.3,141.156011269011,2024-08-07 15h05.17.327586 +0800,,,
"",2,180,3,1,red,sequences/sub103_practice_sequence_00.csv,"","",,,,,,,,,0,0,0,0,0,80,80,37,,,,,,,,,,,,,,,,,,,,,294.8586703,,,,,,,"",,"",,,,294.8530282,294.8586703,294.8586703,295.0603181,295.3407972,1,1,0.477226699999847,None,295.3417927,295.352029,295.352029,295.5534412,295.762060999999,295.7555124,295.755550299999,295.762060999999,296.4564841,,,,,,,"",,"",,,,,,"",,"",,,,,,,"",,"",,,,,"",,"",,,,,,"",,,,,,,,,,"",,"",,,,,sub103,percept,6,0,2024-08-07_15h04.46.095,ASRT_percept,2023.2.3,141.156011269011,2024-08-07 15h05.17.327586 +0800,,,
"",0,0,1,3,red,sequences/sub103_practice_sequence_00.csv,"","",,,,,,,,,0,0,0,0,0,81,81,56,,,,,,,,,,,,,,,,,,,,,296.4633964,,,,,,,"",,"",,,,296.4572848,296.4633964,296.4633964,296.6648932,296.9796306,3,1,0.510010699999839,None,296.9803597,296.9881381,296.9881381,297.192288499999,297.4009274,297.395627,297.3956788,297.4009274,298.0962364,298.1034819,,,,,,"",,"",,,,,,"",,"",,,,,,,"",,"",,,,,"",,"",,,,,,"",,,,,,,,,,"",,"",,,,,sub103,percept,6,0,2024-08-07_15h04.46.095,ASRT_percept,2023.2.3,141.156011269011,2024-08-07 15h05.17.327586 +0800,,,
"",1,90,2,2,red,sequences/sub103_practice_sequence_00.csv,"","",,,,,,,,,0,0,0,0,0,82,82,45,,,,,,,,,,,,,,,,,,,,,298.1034819,,,,,,,"",,"",,,,298.097035899999,298.1034819,298.1034819,298.303478,298.555280799999,2,1,0.447876399999586,None,298.555869299999,298.562715399999,298.562715399999,298.7686636,298.976829599999,298.9710349,298.971077599999,298.976829599999,299.6718998,,,,,,,"",,"",,,,,,"",,"",,,,,,,"",,"",,,,,"",,"",,,,,,"",,,,,,,,,,"",,"",,,,,sub103,percept,6,0,2024-08-07_15h04.46.095,ASRT_percept,2023.2.3,141.156011269011,2024-08-07 15h05.17.327586 +0800,,,
"",1,90,2,2,red,sequences/sub103_practice_sequence_00.csv,"","",,,,,,,,,0,0,0,0,0,83,83,62,,,,,,,,,,,,,,,,,,,,,299.6779784,,,,,,,"",,"",,,,299.6725582,299.6779784,299.6779784,299.8795271,300.2658168,2,1,0.584715099999812,None,300.2665797,300.2743403,300.2743403,300.4773248,300.685006799999,300.6797996,300.6798418,300.685006799999,301.3805754,301.387357699999,,,,,,"",,"",,,,,,"",,"",,,,,,,"",,"",,,,,"",,"",,,,,,"",,,,,,,,,,"",,"",,,,,sub103,percept,6,0,2024-08-07_15h04.46.095,ASRT_percept,2023.2.3,141.156011269011,2024-08-07 15h05.17.327586 +0800,,,
