initial_random_seq_files,orientation_index,orientation_degrees,correct_answer_index,correct_answer_direction,arrow_color,practice_seq_files,learning_seq_files,percept_testing_seq_files,init_random_block.thisRepN,init_random_block.thisTrialN,init_random_block.thisN,init_random_block.thisIndex,init_random_trials.thisRepN,init_random_trials.thisTrialN,init_random_trials.thisN,init_random_trials.thisIndex,practice_blocks.thisRepN,practice_blocks.thisTrialN,practice_blocks.thisN,practice_blocks.thisIndex,practice_trials.thisRepN,practice_trials.thisTrialN,practice_trials.thisN,practice_trials.thisIndex,learning_trials.thisRepN,learning_trials.thisTrialN,learning_trials.thisN,learning_trials.thisIndex,learning_loop.thisRepN,learning_loop.thisTrialN,learning_loop.thisN,learning_loop.thisIndex,trials.thisRepN,trials.thisTrialN,trials.thisN,trials.thisIndex,percept_testing_trials.thisRepN,percept_testing_trials.thisTrialN,percept_testing_trials.thisN,percept_testing_trials.thisIndex,percept_testing_loop.thisRepN,percept_testing_loop.thisTrialN,percept_testing_loop.thisN,percept_testing_loop.thisIndex,thisRow.t,notes,welcomescreen.started,spaceship.started,welcometext.started,welcome_end.started,welcomescreen.stopped,welcome_end.keys,welcome_end.rt,welcome_end.duration,pre_section.started,fixation_init.started,pre_section.stopped,trial.started,arrowhead.started,key_resp.started,arrowhead.stopped,trial.stopped,key_resp.keys,key_resp.corr,key_resp.rt,key_resp.duration,fixation_feedback.started,cross.started,feedback_text.started,cross.stopped,feedback_text.stopped,fixation_feedback.stopped,RSI.started,text_2.started,text_2.stopped,RSI.stopped,post_section.started,feedback_post_section.started,key_resp_4.started,post_section.stopped,key_resp_4.keys,key_resp_4.rt,key_resp_4.duration,pratice_instruction.started,spaceship_rotated.started,rotation_instruction.started,key_resp_2.started,pratice_instruction.stopped,key_resp_2.keys,key_resp_2.rt,key_resp_2.duration,fixation_init.stopped,key_resp.stopped,learning_instruction.started,spaceship_rotated01.started,rotation_instruction01.started,key_resp_02.started,learning_instruction.stopped,key_resp_02.keys,key_resp_02.rt,key_resp_02.duration,seqreport_instruction.started,seqreport_instruction_text.started,seqreport_instruction_key.started,seqreport_instruction.stopped,seqreport_instruction_key.keys,seqreport_instruction_key.rt,seqreport_instruction_key.duration,seqreport.started,seq_report_key.started,seqreport.stopped,seq_report_key.keys,seq_report_key.rt,seq_report_key.duration,seqarrow.started,arrow_report.started,arrow_report.stopped,seqarrow.stopped,percept_testing_instruction.started,spaceship4.started,key_resp_5.started,percept_testing_instruction_text.started,percept_testing_instruction.stopped,key_resp_5.keys,key_resp_5.rt,key_resp_5.duration,fixation.started,cross_2.started,cross_2.stopped,fixation.stopped,thankyouscreen.started,text.started,key_resp_6.started,thankyouscreen.stopped,key_resp_6.keys,key_resp_6.rt,key_resp_6.duration,participant,learning_type,seqID,debug,date,expName,psychopyVersion,frameRate,expStart,
,,,,,,,,,,,,,,,,,,,,,,,,,,,,,,,,,,,,,,,,,,,,,,,0.010810399980982766,0.02279749998706393,0.02279749998706393,0.02279749998706393,8.903957600006834,space,8.878837700001895,None,,,,,,,,,,,,,,,,,,,,,,,,,,,,,,,,,,,,,,,,,,,,,,,,,,,,,,,,,,,,,,,,,,,,,,,,,,,,,,,,,,,,sub128,percept,6,0,2024-08-09_12h45.52.951,ASRT_percept,2023.2.3,59.787086232469456,2024-08-09 12h58.29.802375 +0800,
sequences/sub128_initial_random.csv,1,90,1,3,red,,,,0,0,0,0,0,0,0,0,,,,,,,,,,,,,,,,,,,,,,,,,,,,,9.94312360000913,,,,,,,,,,8.92257259998587,8.92667079999228,9.910196799988626,9.938441400008742,9.94312360000913,9.94312360000913,10.139719500002684,10.511707300000126,3,1,0.5646290000004228,None,10.513690799998585,10.523725499981083,10.523725499981083,10.722523600008572,10.932340400002431,10.927285099984147,10.927332099992782,10.932340400002431,11.626095999992685,11.61975579999853,,,,,,,,,,,,,,,,,,,,,,,,,,,,,,,,,,,,,,,,,,,,,,,,,,,,,,,,,,,,,,sub128,percept,6,0,2024-08-09_12h45.52.951,ASRT_percept,2023.2.3,59.787086232469456,2024-08-09 12h58.29.802375 +0800,
sequences/sub128_initial_random.csv,0,0,0,4,red,,,,0,0,0,0,0,1,1,1,,,,,,,,,,,,,,,,,,,,,,,,,,,,,11.626095999992685,,,,,,,,,,,,,11.620421900006477,11.626095999992685,11.626095999992685,11.82013979999465,12.120531799999299,4,1,0.48699769997620024,None,12.121121300006052,12.127353599993512,12.127353599993512,12.333519899984822,12.541951299994253,12.535955800005468,12.535983999987366,12.541951299994253,13.237516499997582,13.230976399994688,,,,,,,,,,,,,,,,,,,,,,,,,,,,,,,,,,,,,,,,,,,,,,,,,,,,,,,,,,,,,,sub128,percept,6,0,2024-08-09_12h45.52.951,ASRT_percept,2023.2.3,59.787086232469456,2024-08-09 12h58.29.802375 +0800,
sequences/sub128_initial_random.csv,1,90,1,3,red,,,,0,0,0,0,0,2,2,2,,,,,,,,,,,,,,,,,,,,,,,,,,,,,13.237516499997582,,,,,,,,,,,,,13.23161029999028,13.237516499997582,13.237516499997582,13.431007000006502,13.683044300007168,3,1,0.44127120001940057,None,13.683640200004447,13.688421400001971,13.688421400001971,13.896164899982978,14.104278299986618,14.098737899999833,14.098771499993745,14.104278299986618,14.798533599998336,14.792854100000113,,,,,,,,,,,,,,,,,,,,,,,,,,,,,,,,,,,,,,,,,,,,,,,,,,,,,,,,,,,,,,sub128,percept,6,0,2024-08-09_12h45.52.951,ASRT_percept,2023.2.3,59.787086232469456,2024-08-09 12h58.29.802375 +0800,
sequences/sub128_initial_random.csv,1,90,1,3,red,,,,0,0,0,0,0,3,3,3,,,,,,,,,,,,,,,,,,,,,,,,,,,,,14.798533599998336,,,,,,,,,,,,,14.793380799994338,14.798533599998336,14.798533599998336,14.993394799996167,15.363782200001879,3,1,0.5581943999859504,None,15.364531800005352,15.372582399984822,15.372582399984822,15.577107099990826,15.78521840000758,15.779405899986159,15.77945119998185,15.78521840000758,16.481443900003796,16.474064999987604,,,,,,,,,,,,,,,,,,,,,,,,,,,,,,,,,,,,,,,,,,,,,,,,,,,,,,,,,,,,,,sub128,percept,6,0,2024-08-09_12h45.52.951,ASRT_percept,2023.2.3,59.787086232469456,2024-08-09 12h58.29.802375 +0800,
sequences/sub128_initial_random.csv,0,0,0,4,red,,,,0,0,0,0,0,4,4,4,,,,,,,,,,,,,,,,,,,,,,,,,,,,,16.481443900003796,,,,,,,,,,,,,16.474706199980574,16.481443900003796,16.481443900003796,16.674148699996294,16.918437799991807,4,1,0.43319499999051914,None,16.919387100002496,16.924941500008572,16.924941500008572,17.132070699997712,17.34063629998127,17.334549699997297,17.334591099992394,17.34063629998127,18.03454329998931,18.028657499991823,,,,,,,,,,,,,,,,,,,,,,,,,,,,,,,,,,,,,,,,,,,,,,,,,,,,,,,,,,,,,,sub128,percept,6,0,2024-08-09_12h45.52.951,ASRT_percept,2023.2.3,59.787086232469456,2024-08-09 12h58.29.802375 +0800,
sequences/sub128_initial_random.csv,2,180,2,2,red,,,,0,0,0,0,0,5,5,5,,,,,,,,,,,,,,,,,,,,,,,,,,,,,18.03454329998931,,,,,,,,,,,,,18.029198000003817,18.03454329998931,18.03454329998931,18.229503399983514,18.600934299989603,2,1,0.5635329999786336,None,18.60158709998359,18.608508100005565,18.608508100005565,18.812654699984705,19.020923899981426,19.01501269999426,19.015049699984957,19.020923899981426,19.715303600009065,19.709231099986937,,,,,,,,,,,,,,,,,,,,,,,,,,,,,,,,,,,,,,,,,,,,,,,,,,,,,,,,,,,,,,sub128,percept,6,0,2024-08-09_12h45.52.951,ASRT_percept,2023.2.3,59.787086232469456,2024-08-09 12h58.29.802375 +0800,
sequences/sub128_initial_random.csv,2,180,2,2,red,,,,0,0,0,0,0,6,6,6,,,,,,,,,,,,,,,,,,,,,,,,,,,,,19.715303600009065,,,,,,,,,,,,,19.709686599991983,19.715303600009065,19.715303600009065,19.91021129998262,20.217780000006314,2,1,0.4994701000105124,None,20.218458999996074,20.224438699980965,20.224438699980965,20.43068449999555,20.639049399993382,20.63406079998822,20.634104199998546,20.639049399993382,21.338011399988318,21.328772699984256,,,,,,,,,,,,,,,,,,,,,,,,,,,,,,,,,,,,,,,,,,,,,,,,,,,,,,,,,,,,,,sub128,percept,6,0,2024-08-09_12h45.52.951,ASRT_percept,2023.2.3,59.787086232469456,2024-08-09 12h58.29.802375 +0800,
sequences/sub128_initial_random.csv,0,0,0,4,red,,,,0,0,0,0,0,7,7,7,,,,,,,,,,,,,,,,,,,,,,,,,,,,,21.338011399988318,,,,,,,,,,,,,21.330068799987203,21.338011399988318,21.338011399988318,21.52768389999983,21.786919999984093,4,1,0.441805700014811,None,21.787504100007936,21.79380640000454,21.79380640000454,22.000154499983182,22.208405299985316,22.202745299990056,22.20278479999979,22.208405299985316,22.902517699985765,22.89700619998621,,,,,,,,,,,,,,,,,,,,,,,,,,,,,,,,,,,,,,,,,,,,,,,,,,,,,,,,,,,,,,sub128,percept,6,0,2024-08-09_12h45.52.951,ASRT_percept,2023.2.3,59.787086232469456,2024-08-09 12h58.29.802375 +0800,
sequences/sub128_initial_random.csv,1,90,1,3,red,,,,0,0,0,0,0,8,8,8,,,,,,,,,,,,,,,,,,,,,,,,,,,,,22.902517699985765,,,,,,,,,,,,,22.897538199991686,22.902517699985765,22.902517699985765,23.097180199983995,23.404957199993078,3,1,0.49855630000820383,None,23.40554969999357,23.41116439999314,23.41116439999314,23.617768900003284,23.826576199993724,23.820550999982515,23.820583399996394,23.826576199993724,24.52225290000206,24.515477100008866,,,,,,,,,,,,,,,,,,,,,,,,,,,,,,,,,,,,,,,,,,,,,,,,,,,,,,,,,,,,,,sub128,percept,6,0,2024-08-09_12h45.52.951,ASRT_percept,2023.2.3,59.787086232469456,2024-08-09 12h58.29.802375 +0800,
sequences/sub128_initial_random.csv,1,90,1,3,red,,,,0,0,0,0,0,9,9,9,,,,,,,,,,,,,,,,,,,,,,,,,,,,,24.52225290000206,,,,,,,,,,,,,24.51607929999591,24.52225290000206,24.52225290000206,24.71536129998276,25.003090499987593,3,1,0.4781115000077989,None,25.003714799997397,25.009913399990182,25.009913399990182,25.215052499988815,25.423770499997772,25.41854549999698,25.418596100003924,25.423770499997772,26.120441000006394,26.112438299984206,,,,,,,,,,,,,,,,,,,,,,,,,,,,,,,,,,,,,,,,,,,,,,,,,,,,,,,,,,,,,,sub128,percept,6,0,2024-08-09_12h45.52.951,ASRT_percept,2023.2.3,59.787086232469456,2024-08-09 12h58.29.802375 +0800,
sequences/sub128_initial_random.csv,3,270,3,1,red,,,,0,0,0,0,0,10,10,10,,,,,,,,,,,,,,,,,,,,,,,,,,,,,26.120441000006394,,,,,,,,,,,,,26.113130699988687,26.120441000006394,26.120441000006394,26.312255600001663,26.523439999989932,1,1,0.3995404999877792,None,26.524079700000584,26.5317020000075,26.5317020000075,26.73634430000675,26.944497499993304,26.938508299994282,26.938549899990903,26.944497499993304,27.639463700004853,27.633146799984388,,,,,,,,,,,,,,,,,,,,,,,,,,,,,,,,,,,,,,,,,,,,,,,,,,,,,,,,,,,,,,sub128,percept,6,0,2024-08-09_12h45.52.951,ASRT_percept,2023.2.3,59.787086232469456,2024-08-09 12h58.29.802375 +0800,
sequences/sub128_initial_random.csv,1,90,1,3,red,,,,0,0,0,0,0,11,11,11,,,,,,,,,,,,,,,,,,,,,,,,,,,,,27.639463700004853,,,,,,,,,,,,,27.633739399985643,27.639463700004853,27.639463700004853,27.83369390000007,28.078538700006902,3,1,0.4321590999898035,None,28.07911759999115,28.085079699987546,28.085079699987546,28.29191179998452,28.499762399995234,28.494011200004024,28.49404200000572,28.499762399995234,29.193913499999326,29.188486400002148,,,,,,,,,,,,,,,,,,,,,,,,,,,,,,,,,,,,,,,,,,,,,,,,,,,,,,,,,,,,,,sub128,percept,6,0,2024-08-09_12h45.52.951,ASRT_percept,2023.2.3,59.787086232469456,2024-08-09 12h58.29.802375 +0800,
sequences/sub128_initial_random.csv,2,180,2,2,red,,,,0,0,0,0,0,12,12,12,,,,,,,,,,,,,,,,,,,,,,,,,,,,,29.193913499999326,,,,,,,,,,,,,29.18902479999815,29.193913499999326,29.193913499999326,29.38886469998397,29.77221619998454,2,1,0.5738280999939889,None,29.77280730000348,29.777343499998096,29.777343499998096,29.98611090000486,30.194324999989476,30.188728199980687,30.188773600006243,30.194324999989476,30.89013640000485,30.88292740000179,,,,,,,,,,,,,,,,,,,,,,,,,,,,,,,,,,,,,,,,,,,,,,,,,,,,,,,,,,,,,,sub128,percept,6,0,2024-08-09_12h45.52.951,ASRT_percept,2023.2.3,59.787086232469456,2024-08-09 12h58.29.802375 +0800,
sequences/sub128_initial_random.csv,3,270,3,1,red,,,,0,0,0,0,0,13,13,13,,,,,,,,,,,,,,,,,,,,,,,,,,,,,30.89013640000485,,,,,,,,,,,,,30.883505300007528,30.89013640000485,30.89013640000485,31.083285800006706,31.281451999995625,1,1,0.3825605000020005,None,31.282061300007626,31.287932300008833,31.287932300008833,31.49304659999325,31.70115249999799,31.695115999988047,31.695153699984076,31.70115249999799,32.39545909999288,32.38967839998077,,,,,,,,,,,,,,,,,,,,,,,,,,,,,,,,,,,,,,,,,,,,,,,,,,,,,,,,,,,,,,sub128,percept,6,0,2024-08-09_12h45.52.951,ASRT_percept,2023.2.3,59.787086232469456,2024-08-09 12h58.29.802375 +0800,
sequences/sub128_initial_random.csv,0,0,0,4,red,,,,0,0,0,0,0,14,14,14,,,,,,,,,,,,,,,,,,,,,,,,,,,,,32.39545909999288,,,,,,,,,,,,,32.39022719999775,32.39545909999288,32.39545909999288,32.59051389998058,32.80135749999317,4,1,0.40066770001430996,None,32.802124199981336,32.8094477999839,32.8094477999839,33.01381350000156,33.22213389998069,33.21604229998775,33.21608240000205,33.22213389998069,33.91854159999639,33.91107639999245,,,,,,,,,,,,,,,,,,,,,,,,,,,,,,,,,,,,,,,,,,,,,,,,,,,,,,,,,,,,,,sub128,percept,6,0,2024-08-09_12h45.52.951,ASRT_percept,2023.2.3,59.787086232469456,2024-08-09 12h58.29.802375 +0800,
sequences/sub128_initial_random.csv,2,180,2,2,red,,,,0,0,0,0,0,15,15,15,,,,,,,,,,,,,,,,,,,,,,,,,,,,,33.91854159999639,,,,,,,,,,,,,33.91178249998484,33.91854159999639,33.91854159999639,34.11066489998484,34.4950634999841,2,1,0.5720762999844737,None,34.49570840000524,34.50044830000843,34.50044830000843,34.707864099997096,34.916984199982835,34.91097249998711,34.91101660000277,34.916984199982835,35.61119759999565,35.605285900004674,,,,,,,,,,,,,,,,,,,,,,,,,,,,,,,,,,,,,,,,,,,,,,,,,,,,,,,,,,,,,,sub128,percept,6,0,2024-08-09_12h45.52.951,ASRT_percept,2023.2.3,59.787086232469456,2024-08-09 12h58.29.802375 +0800,
sequences/sub128_initial_random.csv,0,0,0,4,red,,,,0,0,0,0,0,16,16,16,,,,,,,,,,,,,,,,,,,,,,,,,,,,,35.61119759999565,,,,,,,,,,,,,35.60598980000941,35.61119759999565,35.61119759999565,35.80558429998928,35.98066309999558,4,1,0.3625916999881156,None,35.98127580000437,35.986158199986676,35.986158199986676,36.194020800001454,36.40251559999888,36.39705229998799,36.39708930000779,36.40251559999888,37.098751499986975,37.091726499988,,,,,,,,,,,,,,,,,,,,,,,,,,,,,,,,,,,,,,,,,,,,,,,,,,,,,,,,,,,,,,sub128,percept,6,0,2024-08-09_12h45.52.951,ASRT_percept,2023.2.3,59.787086232469456,2024-08-09 12h58.29.802375 +0800,
sequences/sub128_initial_random.csv,2,180,2,2,red,,,,0,0,0,0,0,17,17,17,,,,,,,,,,,,,,,,,,,,,,,,,,,,,37.098751499986975,,,,,,,,,,,,,37.09238419999019,37.098751499986975,37.098751499986975,37.291292699985206,37.669204899983015,2,1,0.5662127000105102,None,37.669919399981154,37.67588229998364,37.67588229998364,37.88153459999012,38.08983359998092,38.084019300004,38.084062099980656,38.08983359998092,38.786473899992416,38.779040699999314,,,,,,,,,,,,,,,,,,,,,,,,,,,,,,,,,,,,,,,,,,,,,,,,,,,,,,,,,,,,,,sub128,percept,6,0,2024-08-09_12h45.52.951,ASRT_percept,2023.2.3,59.787086232469456,2024-08-09 12h58.29.802375 +0800,
sequences/sub128_initial_random.csv,3,270,3,1,red,,,,0,0,0,0,0,18,18,18,,,,,,,,,,,,,,,,,,,,,,,,,,,,,38.786473899992416,,,,,,,,,,,,,38.77985110000009,38.786473899992416,38.786473899992416,38.978817600000184,39.210195299994666,1,1,0.41931510000722483,None,39.21082499998738,39.21801919999416,39.21801919999416,39.42327299999306,39.63162309999461,39.625836499995785,39.62587779999012,39.63162309999461,40.32590639998671,40.3200799000042,,,,,,,,,,,,,,,,,,,,,,,,,,,,,,,,,,,,,,,,,,,,,,,,,,,,,,,,,,,,,,sub128,percept,6,0,2024-08-09_12h45.52.951,ASRT_percept,2023.2.3,59.787086232469456,2024-08-09 12h58.29.802375 +0800,
sequences/sub128_initial_random.csv,3,270,3,1,red,,,,0,0,0,0,0,19,19,19,,,,,,,,,,,,,,,,,,,,,,,,,,,,,40.32590639998671,,,,,,,,,,,,,40.32062690000748,40.32590639998671,40.32590639998671,40.52045789998374,40.7031369000033,1,1,0.3704067000071518,None,40.70382339999196,40.71041440000408,40.71041440000408,40.91628929998842,41.12469739999506,41.11889680000604,41.118937199993525,41.12469739999506,41.8236537000048,41.81452200000058,,,,,,,,,,,,,,,,,,,,,,,,,,,,,,,,,,,,,,,,,,,,,,,,,,,,,,,,,,,,,,sub128,percept,6,0,2024-08-09_12h45.52.951,ASRT_percept,2023.2.3,59.787086232469456,2024-08-09 12h58.29.802375 +0800,
sequences/sub128_initial_random.csv,2,180,2,2,red,,,,0,0,0,0,0,20,20,20,,,,,,,,,,,,,,,,,,,,,,,,,,,,,41.8236537000048,,,,,,,,,,,,,41.81536179999239,41.8236537000048,41.8236537000048,42.013841499981936,42.41333039998426,2,1,0.5866297999746166,None,42.41394900000887,42.422086799982935,42.422086799982935,42.624930099991616,42.83275579998735,42.82677660000627,42.826803999982076,42.83275579998735,43.52777359998436,43.52169709998998,,,,,,,,,,,,,,,,,,,,,,,,,,,,,,,,,,,,,,,,,,,,,,,,,,,,,,,,,,,,,,sub128,percept,6,0,2024-08-09_12h45.52.951,ASRT_percept,2023.2.3,59.787086232469456,2024-08-09 12h58.29.802375 +0800,
sequences/sub128_initial_random.csv,2,180,2,2,red,,,,0,0,0,0,0,21,21,21,,,,,,,,,,,,,,,,,,,,,,,,,,,,,43.52777359998436,,,,,,,,,,,,,43.522284400009084,43.52777359998436,43.52777359998436,43.72174079998513,44.001370999991195,2,1,0.4682041000050958,None,44.00205549999373,44.009295399999246,44.009295399999246,44.214900499995565,44.42322989998502,44.41731220000656,44.41734919999726,44.42322989998502,45.11882189998869,45.11268389999168,,,,,,,,,,,,,,,,,,,,,,,,,,,,,,,,,,,,,,,,,,,,,,,,,,,,,,,,,,,,,,sub128,percept,6,0,2024-08-09_12h45.52.951,ASRT_percept,2023.2.3,59.787086232469456,2024-08-09 12h58.29.802375 +0800,
sequences/sub128_initial_random.csv,2,180,2,2,red,,,,0,0,0,0,0,22,22,22,,,,,,,,,,,,,,,,,,,,,,,,,,,,,45.11882189998869,,,,,,,,,,,,,45.113275099982275,45.11882189998869,45.11882189998869,45.31222950000665,45.64090510000824,2,1,0.515079800010426,None,45.64151169999968,45.64819519998855,45.64819519998855,45.853837000002386,46.06214679998811,46.05624059998081,46.056275099981576,46.06214679998811,46.75881379999919,46.7513520999928,,,,,,,,,,,,,,,,,,,,,,,,,,,,,,,,,,,,,,,,,,,,,,,,,,,,,,,,,,,,,,sub128,percept,6,0,2024-08-09_12h45.52.951,ASRT_percept,2023.2.3,59.787086232469456,2024-08-09 12h58.29.802375 +0800,
sequences/sub128_initial_random.csv,3,270,3,1,red,,,,0,0,0,0,0,23,23,23,,,,,,,,,,,,,,,,,,,,,,,,,,,,,46.75881379999919,,,,,,,,,,,,,46.75208539998857,46.75881379999919,46.75881379999919,46.95095259998925,47.2381999999925,1,1,0.47623999998904765,None,47.23905410000589,47.24570080000558,47.24570080000558,47.450895799993305,47.65907349999179,47.65379260000191,47.65383249998558,47.65907349999179,48.35449589998461,48.34851589999744,,,,,,,,,,,,,,,,,,,,,,,,,,,,,,,,,,,,,,,,,,,,,,,,,,,,,,,,,,,,,,sub128,percept,6,0,2024-08-09_12h45.52.951,ASRT_percept,2023.2.3,59.787086232469456,2024-08-09 12h58.29.802375 +0800,
sequences/sub128_initial_random.csv,1,90,1,3,red,,,,0,0,0,0,0,24,24,24,,,,,,,,,,,,,,,,,,,,,,,,,,,,,48.35449589998461,,,,,,,,,,,,,48.34909659999539,48.35449589998461,48.35449589998461,48.54866239998955,48.7736198999919,3,1,0.41633949999231845,None,48.77420310000889,48.780431399994995,48.780431399994995,48.985620699997526,49.19391000000178,49.18773209999199,49.18776679999428,49.19391000000178,49.88900470000226,49.88280069999746,,,,,,,,,,,,,,,,,,,,,,,,,,,,,,,,,,,,,,,,,,,,,,,,,,,,,,,,,,,,,,sub128,percept,6,0,2024-08-09_12h45.52.951,ASRT_percept,2023.2.3,59.787086232469456,2024-08-09 12h58.29.802375 +0800,
sequences/sub128_initial_random.csv,0,0,0,4,red,,,,0,0,0,0,0,25,25,25,,,,,,,,,,,,,,,,,,,,,,,,,,,,,49.88900470000226,,,,,,,,,,,,,49.88337890000548,49.88900470000226,49.88900470000226,50.082724899984896,50.34171390000847,4,1,0.4466806999989785,None,50.34232379999594,50.348065800004406,50.348065800004406,50.554844900005264,50.763162999995984,50.75742929999251,50.757465800008504,50.763162999995984,51.45972799998708,51.452272900001844,,,,,,,,,,,,,,,,,,,,,,,,,,,,,,,,,,,,,,,,,,,,,,,,,,,,,,,,,,,,,,sub128,percept,6,0,2024-08-09_12h45.52.951,ASRT_percept,2023.2.3,59.787086232469456,2024-08-09 12h58.29.802375 +0800,
sequences/sub128_initial_random.csv,0,0,0,4,red,,,,0,0,0,0,0,26,26,26,,,,,,,,,,,,,,,,,,,,,,,,,,,,,51.45972799998708,,,,,,,,,,,,,51.4530359999917,51.45972799998708,51.45972799998708,51.65216989998589,51.90576969998074,4,1,0.441721699986374,None,51.90643909998471,51.91241180000361,51.91241180000361,52.11741639999673,52.32588630000828,52.31994240000495,52.31998259999091,52.32588630000828,53.019943099992815,53.014025199983735,,,,,,,,,,,,,,,,,,,,,,,,,,,,,,,,,,,,,,,,,,,,,,,,,,,,,,,,,,,,,,sub128,percept,6,0,2024-08-09_12h45.52.951,ASRT_percept,2023.2.3,59.787086232469456,2024-08-09 12h58.29.802375 +0800,
sequences/sub128_initial_random.csv,2,180,2,2,red,,,,0,0,0,0,0,27,27,27,,,,,,,,,,,,,,,,,,,,,,,,,,,,,53.019943099992815,,,,,,,,,,,,,53.01455349999014,53.019943099992815,53.019943099992815,53.21457999999984,53.59481270000106,2,1,0.5711803000012878,None,53.59622320000199,53.60310700000264,53.60310700000264,53.80497349999496,54.0130380000046,54.00795729999663,54.00799739998183,54.0130380000046,54.708681599993724,54.70184409999638,,,,,,,,,,,,,,,,,,,,,,,,,,,,,,,,,,,,,,,,,,,,,,,,,,,,,,,,,,,,,,sub128,percept,6,0,2024-08-09_12h45.52.951,ASRT_percept,2023.2.3,59.787086232469456,2024-08-09 12h58.29.802375 +0800,
sequences/sub128_initial_random.csv,3,270,3,1,red,,,,0,0,0,0,0,28,28,28,,,,,,,,,,,,,,,,,,,,,,,,,,,,,54.708681599993724,,,,,,,,,,,,,54.70257190000848,54.708681599993724,54.708681599993724,54.902388699993026,55.105397100007394,1,1,0.3934050000098068,None,55.10608520000824,55.111261099984404,55.111261099984404,55.31857239999226,55.52767360000871,55.52206499999738,55.522116399981314,55.52767360000871,56.22133100000792,56.215278599993326,,,,,,,,,,,,,,,,,,,,,,,,,,,,,,,,,,,,,,,,,,,,,,,,,,,,,,,,,,,,,,sub128,percept,6,0,2024-08-09_12h45.52.951,ASRT_percept,2023.2.3,59.787086232469456,2024-08-09 12h58.29.802375 +0800,
sequences/sub128_initial_random.csv,3,270,3,1,red,,,,0,0,0,0,0,29,29,29,,,,,,,,,,,,,,,,,,,,,,,,,,,,,56.22133100000792,,,,,,,,,,,,,56.21576859999914,56.22133100000792,56.22133100000792,56.41627519999747,56.64155259999097,1,1,0.41792100001475774,None,56.642173700005515,56.64796939998632,56.64796939998632,56.85347219998948,57.0619660000084,57.056157199986046,57.05620190000627,57.0619660000084,57.75590610000654,57.749823899997864,,,,,,,,,,,,,,,,,,,,,,,,,,,,,,,,,,,,,,,,,,,,,,,,,,,,,,,,,,,,,,sub128,percept,6,0,2024-08-09_12h45.52.951,ASRT_percept,2023.2.3,59.787086232469456,2024-08-09 12h58.29.802375 +0800,
sequences/sub128_initial_random.csv,3,270,3,1,red,,,,0,0,0,0,0,30,30,30,,,,,,,,,,,,,,,,,,,,,,,,,,,,,57.75590610000654,,,,,,,,,,,,,57.75028539999039,57.75590610000654,57.75590610000654,57.95083909999812,58.13371969998116,1,1,0.3703885999857448,None,58.13428669999121,58.13947229998303,58.13947229998303,58.34629309998127,58.55456240000785,58.549333200004185,58.549368999985745,58.55456240000785,59.24955320000299,59.24356129998341,,,,,,,,,,,,,,,,,,,,,,,,,,,,,,,,,,,,,,,,,,,,,,,,,,,,,,,,,,,,,,sub128,percept,6,0,2024-08-09_12h45.52.951,ASRT_percept,2023.2.3,59.787086232469456,2024-08-09 12h58.29.802375 +0800,
sequences/sub128_initial_random.csv,0,0,0,4,red,,,,0,0,0,0,0,31,31,31,,,,,,,,,,,,,,,,,,,,,,,,,,,,,59.24955320000299,,,,,,,,,,,,,59.24409469999955,59.24955320000299,59.24955320000299,59.443858099984936,59.64163259998895,4,1,0.3889004999946337,None,59.642277699982515,59.6487991999893,59.6487991999893,59.85340510000242,60.06155519999447,60.055854699981865,60.055898599996,60.06155519999447,60.75741469999775,60.75061640000786,,,,,,,,,,,,,,,,,,,,,,,,,,,,,,,,,,,,,,,,,,,,,,,,,,,,,,,,,,,,,,sub128,percept,6,0,2024-08-09_12h45.52.951,ASRT_percept,2023.2.3,59.787086232469456,2024-08-09 12h58.29.802375 +0800,
sequences/sub128_initial_random.csv,1,90,1,3,red,,,,0,0,0,0,0,32,32,32,,,,,,,,,,,,,,,,,,,,,,,,,,,,,60.75741469999775,,,,,,,,,,,,,60.75127400000929,60.75741469999775,60.75741469999775,60.951172900007805,61.09810780000407,3,1,0.33672939997632056,None,61.098686299985275,61.105466999986675,61.105466999986675,61.31141719999141,61.52056839998113,61.51416550000431,61.514205299987225,61.52056839998113,62.21447249999619,62.20909990000655,,,,,,,,,,,,,,,,,,,,,,,,,,,,,,,,,,,,,,,,,,,,,,,,,,,,,,,,,,,,,,sub128,percept,6,0,2024-08-09_12h45.52.951,ASRT_percept,2023.2.3,59.787086232469456,2024-08-09 12h58.29.802375 +0800,
sequences/sub128_initial_random.csv,2,180,2,2,red,,,,0,0,0,0,0,33,33,33,,,,,,,,,,,,,,,,,,,,,,,,,,,,,62.21447249999619,,,,,,,,,,,,,62.20957199999248,62.21447249999619,62.21447249999619,62.40906760000507,62.76779179999721,2,1,0.5496681999939028,None,62.76849749998655,62.775267899996834,62.775267899996834,62.97828710000613,63.1866655999911,63.18063859999529,63.18067559998599,63.1866655999911,63.88066309998976,63.87507919999189,,,,,,,,,,,,,,,,,,,,,,,,,,,,,,,,,,,,,,,,,,,,,,,,,,,,,,,,,,,,,,sub128,percept,6,0,2024-08-09_12h45.52.951,ASRT_percept,2023.2.3,59.787086232469456,2024-08-09 12h58.29.802375 +0800,
sequences/sub128_initial_random.csv,3,270,3,1,red,,,,0,0,0,0,0,34,34,34,,,,,,,,,,,,,,,,,,,,,,,,,,,,,63.88066309998976,,,,,,,,,,,,,63.87570360000245,63.88066309998976,63.88066309998976,64.07548669999233,64.20292949999566,1,1,0.31862000000546686,None,64.20356910000555,64.20835609998903,64.20835609998903,64.41579599998659,64.62434720000601,64.618138299993,64.61815269998624,64.62434720000601,65.31854819998262,65.31296179999481,,,,,,,,,,,,,,,,,,,,,,,,,,,,,,,,,,,,,,,,,,,,,,,,,,,,,,,,,,,,,,sub128,percept,6,0,2024-08-09_12h45.52.951,ASRT_percept,2023.2.3,59.787086232469456,2024-08-09 12h58.29.802375 +0800,
sequences/sub128_initial_random.csv,0,0,0,4,red,,,,0,0,0,0,0,35,35,35,,,,,,,,,,,,,,,,,,,,,,,,,,,,,65.31854819998262,,,,,,,,,,,,,65.31346859998303,65.31854819998262,65.31854819998262,65.51344949999475,65.69550090000848,4,1,0.3707216000184417,None,65.69612119998783,65.7026804999914,65.7026804999914,65.90881599998102,66.11687820000225,66.1113897000032,66.11142289999407,66.11687820000225,66.81280879999395,66.80588729999727,,,,,,,,,,,,,,,,,,,,,,,,,,,,,,,,,,,,,,,,,,,,,,,,,,,,,,,,,,,,,,sub128,percept,6,0,2024-08-09_12h45.52.951,ASRT_percept,2023.2.3,59.787086232469456,2024-08-09 12h58.29.802375 +0800,
sequences/sub128_initial_random.csv,2,180,2,2,red,,,,0,0,0,0,0,36,36,36,,,,,,,,,,,,,,,,,,,,,,,,,,,,,66.81280879999395,,,,,,,,,,,,,66.80647169999429,66.81280879999395,66.81280879999395,67.00614720000885,67.38351029998739,2,1,0.5675951000011992,None,67.38425699999789,67.39113509998424,67.39113509998424,67.59638730000006,67.80458389999694,67.79887169998256,67.79891650000354,67.80458389999694,68.49901349999709,68.49322740000207,,,,,,,,,,,,,,,,,,,,,,,,,,,,,,,,,,,,,,,,,,,,,,,,,,,,,,,,,,,,,,sub128,percept,6,0,2024-08-09_12h45.52.951,ASRT_percept,2023.2.3,59.787086232469456,2024-08-09 12h58.29.802375 +0800,
sequences/sub128_initial_random.csv,3,270,3,1,red,,,,0,0,0,0,0,37,37,37,,,,,,,,,,,,,,,,,,,,,,,,,,,,,68.49901349999709,,,,,,,,,,,,,68.49385619998793,68.49901349999709,68.49901349999709,68.69380350000574,68.9525694999902,1,1,0.44979489999241196,None,68.95312890000059,68.95894229999976,68.95894229999976,69.16574070000206,69.37403439998161,69.36907190000056,69.36911279999185,69.37403439998161,70.06885799998417,70.0628316999937,,,,,,,,,,,,,,,,,,,,,,,,,,,,,,,,,,,,,,,,,,,,,,,,,,,,,,,,,,,,,,sub128,percept,6,0,2024-08-09_12h45.52.951,ASRT_percept,2023.2.3,59.787086232469456,2024-08-09 12h58.29.802375 +0800,
sequences/sub128_initial_random.csv,2,180,2,2,red,,,,0,0,0,0,0,38,38,38,,,,,,,,,,,,,,,,,,,,,,,,,,,,,70.06885799998417,,,,,,,,,,,,,70.06337980000535,70.06885799998417,70.06885799998417,70.26291869999841,70.66746039999998,2,1,0.5926415000285488,None,70.66801520000445,70.67508869999438,70.67508869999438,70.881223400007,71.08924939998542,71.08345649999683,71.08349799999269,71.08924939998542,71.78824029999669,71.77891769999405,,,,,,,,,,,,,,,,,,,,,,,,,,,,,,,,,,,,,,,,,,,,,,,,,,,,,,,,,,,,,,sub128,percept,6,0,2024-08-09_12h45.52.951,ASRT_percept,2023.2.3,59.787086232469456,2024-08-09 12h58.29.802375 +0800,
sequences/sub128_initial_random.csv,1,90,1,3,red,,,,0,0,0,0,0,39,39,39,,,,,,,,,,,,,,,,,,,,,,,,,,,,,71.78824029999669,,,,,,,,,,,,,71.77965949999634,71.78824029999669,71.78824029999669,71.97845629998483,72.23793309999746,3,1,0.44306330001563765,None,72.23873209999874,72.2447714000009,72.2447714000009,72.45284519999404,72.65853670000797,72.65309599999455,72.65314280000166,72.65853670000797,73.35452339999028,73.347629099997,,,,,,,,,,,,,,,,,,,,,,,,,,,,,,,,,,,,,,,,,,,,,,,,,,,,,,,,,,,,,,sub128,percept,6,0,2024-08-09_12h45.52.951,ASRT_percept,2023.2.3,59.787086232469456,2024-08-09 12h58.29.802375 +0800,
sequences/sub128_initial_random.csv,3,270,3,1,red,,,,0,0,0,0,0,40,40,40,,,,,,,,,,,,,,,,,,,,,,,,,,,,,73.35452339999028,,,,,,,,,,,,,73.34816550000687,73.35452339999028,73.35452339999028,73.54757679998875,73.78454160000547,1,1,0.4255725000111852,None,73.7847974000033,73.79027609998593,73.79027609998593,73.99843799998052,74.20741740000085,74.20150809999905,74.20154849998653,74.20741740000085,74.90508540000883,74.89660509998794,,,,,,,,,,,,,,,,,,,,,,,,,,,,,,,,,,,,,,,,,,,,,,,,,,,,,,,,,,,,,,sub128,percept,6,0,2024-08-09_12h45.52.951,ASRT_percept,2023.2.3,59.787086232469456,2024-08-09 12h58.29.802375 +0800,
sequences/sub128_initial_random.csv,2,180,2,2,red,,,,0,0,0,0,0,41,41,41,,,,,,,,,,,,,,,,,,,,,,,,,,,,,74.90508540000883,,,,,,,,,,,,,74.89724910000223,74.90508540000883,74.90508540000883,75.09622079998371,75.45408179998049,2,1,0.5402313000231516,None,75.45476110000163,75.46013069999753,75.46013069999753,75.66559289998258,75.87389669998083,75.86830119998194,75.86834499999532,75.87389669998083,76.56990519998362,76.56217749998905,,,,,,,,,,,,,,,,,,,,,,,,,,,,,,,,,,,,,,,,,,,,,,,,,,,,,,,,,,,,,,sub128,percept,6,0,2024-08-09_12h45.52.951,ASRT_percept,2023.2.3,59.787086232469456,2024-08-09 12h58.29.802375 +0800,
sequences/sub128_initial_random.csv,1,90,1,3,red,,,,0,0,0,0,0,42,42,42,,,,,,,,,,,,,,,,,,,,,,,,,,,,,76.56990519998362,,,,,,,,,,,,,76.56277620000765,76.56990519998362,76.56990519998362,76.76272599998629,77.12727769999765,3,1,0.5517878000100609,None,77.12800239998614,77.13520279998193,77.13520279998193,77.33901739999419,77.54735919999075,77.54231069999514,77.54235770000378,77.54735919999075,78.24208299999009,78.23653989998274,,,,,,,,,,,,,,,,,,,,,,,,,,,,,,,,,,,,,,,,,,,,,,,,,,,,,,,,,,,,,,sub128,percept,6,0,2024-08-09_12h45.52.951,ASRT_percept,2023.2.3,59.787086232469456,2024-08-09 12h58.29.802375 +0800,
sequences/sub128_initial_random.csv,1,90,1,3,red,,,,0,0,0,0,0,43,43,43,,,,,,,,,,,,,,,,,,,,,,,,,,,,,78.24208299999009,,,,,,,,,,,,,78.23718689999077,78.24208299999009,78.24208299999009,78.43630989998928,78.71596879998106,3,1,0.46631129999877885,None,78.71648830000777,78.72198450000724,78.72198450000724,78.92924179998226,79.13740249999682,79.13218220000272,79.13222229998792,79.13740249999682,79.83282650000183,79.82621669999207,,,,,,,,,,,,,,,,,,,,,,,,,,,,,,,,,,,,,,,,,,,,,,,,,,,,,,,,,,,,,,sub128,percept,6,0,2024-08-09_12h45.52.951,ASRT_percept,2023.2.3,59.787086232469456,2024-08-09 12h58.29.802375 +0800,
sequences/sub128_initial_random.csv,3,270,3,1,red,,,,0,0,0,0,0,44,44,44,,,,,,,,,,,,,,,,,,,,,,,,,,,,,79.83282650000183,,,,,,,,,,,,,79.82688189999317,79.83282650000183,79.83282650000183,80.02695659999154,80.38705439999467,1,1,0.5516329999954905,None,80.38766859998577,80.39253959999769,80.39253959999769,80.59617639999487,80.80461990000913,80.7982332999818,80.7982672000071,80.80461990000913,81.49904860000242,81.4929015999951,,,,,,,,,,,,,,,,,,,,,,,,,,,,,,,,,,,,,,,,,,,,,,,,,,,,,,,,,,,,,,sub128,percept,6,0,2024-08-09_12h45.52.951,ASRT_percept,2023.2.3,59.787086232469456,2024-08-09 12h58.29.802375 +0800,
sequences/sub128_initial_random.csv,1,90,1,3,red,,,,0,0,0,0,0,45,45,45,,,,,,,,,,,,,,,,,,,,,,,,,,,,,81.49904860000242,,,,,,,,,,,,,81.49344960000599,81.49904860000242,81.49904860000242,81.6929686999938,81.90283669999917,3,1,0.4006616000260692,None,81.90337590000127,81.9084184000094,81.9084184000094,82.11708689999068,82.3250344999833,82.31933460000437,82.3193709999905,82.3250344999833,83.01941819998319,83.01349330000812,,,,,,,,,,,,,,,,,,,,,,,,,,,,,,,,,,,,,,,,,,,,,,,,,,,,,,,,,,,,,,sub128,percept,6,0,2024-08-09_12h45.52.951,ASRT_percept,2023.2.3,59.787086232469456,2024-08-09 12h58.29.802375 +0800,
sequences/sub128_initial_random.csv,3,270,3,1,red,,,,0,0,0,0,0,46,46,46,,,,,,,,,,,,,,,,,,,,,,,,,,,,,83.01941819998319,,,,,,,,,,,,,83.01398299998255,83.01941819998319,83.01941819998319,83.21375930000795,83.57157060000463,1,1,0.5498360999918077,None,83.5721285000036,83.58029559999704,83.58029559999704,83.78332449999289,83.99185239998042,83.98605809998116,83.986096299981,83.99185239998042,84.68843959999504,84.68067729999893,,,,,,,,,,,,,,,,,,,,,,,,,,,,,,,,,,,,,,,,,,,,,,,,,,,,,,,,,,,,,,sub128,percept,6,0,2024-08-09_12h45.52.951,ASRT_percept,2023.2.3,59.787086232469456,2024-08-09 12h58.29.802375 +0800,
sequences/sub128_initial_random.csv,3,270,3,1,red,,,,0,0,0,0,0,47,47,47,,,,,,,,,,,,,,,,,,,,,,,,,,,,,84.68843959999504,,,,,,,,,,,,,84.68134999999893,84.68843959999504,84.68843959999504,84.88054869999178,85.12564690000727,1,1,0.4323088999954052,None,85.12647729998571,85.13138209999306,85.13138209999306,85.33902729998226,85.54698569999891,85.54180400000769,85.54184560000431,85.54698569999891,86.24250349999056,86.23620590000064,,,,,,,,,,,,,,,,,,,,,,,,,,,,,,,,,,,,,,,,,,,,,,,,,,,,,,,,,,,,,,sub128,percept,6,0,2024-08-09_12h45.52.951,ASRT_percept,2023.2.3,59.787086232469456,2024-08-09 12h58.29.802375 +0800,
sequences/sub128_initial_random.csv,3,270,3,1,red,,,,0,0,0,0,0,48,48,48,,,,,,,,,,,,,,,,,,,,,,,,,,,,,86.24250349999056,,,,,,,,,,,,,86.23678609999479,86.24250349999056,86.24250349999056,86.43655650000437,86.66773620000458,1,1,0.41861819999758154,None,86.66848120000213,86.67500709998421,86.67500709998421,86.88046630000463,87.08895780000603,87.08294200000819,87.0829825999972,87.08895780000603,87.78464440000243,87.77796869998565,,,,,,,,,,,,,,,,,,,,,,,,,,,,,,,,,,,,,,,,,,,,,,,,,,,,,,,,,,,,,,sub128,percept,6,0,2024-08-09_12h45.52.951,ASRT_percept,2023.2.3,59.787086232469456,2024-08-09 12h58.29.802375 +0800,
sequences/sub128_initial_random.csv,1,90,1,3,red,,,,0,0,0,0,0,49,49,49,,,,,,,,,,,,,,,,,,,,,,,,,,,,,87.78464440000243,,,,,,,,,,,,,87.77860570000485,87.78464440000243,87.78464440000243,87.97802199999569,88.16734419998829,3,1,0.37896090000867844,None,88.16793389999657,88.17433209999581,88.17433209999581,88.38058189998264,88.58884680000483,88.58295099998941,88.58298069998273,88.58884680000483,89.28317909999168,89.27725300000748,,,,,,,,,,,,,,,,,,,,,,,,,,,,,,,,,,,,,,,,,,,,,,,,,,,,,,,,,,,,,,sub128,percept,6,0,2024-08-09_12h45.52.951,ASRT_percept,2023.2.3,59.787086232469456,2024-08-09 12h58.29.802375 +0800,
sequences/sub128_initial_random.csv,0,0,0,4,red,,,,0,0,0,0,0,50,50,50,,,,,,,,,,,,,,,,,,,,,,,,,,,,,89.28317909999168,,,,,,,,,,,,,89.27779130000272,89.28317909999168,89.28317909999168,89.47747369998251,89.70370290000574,4,1,0.41736970000783913,None,89.70437789999414,89.71106329999748,89.71106329999748,89.91505569999572,90.1235985000094,90.11728380000568,90.11731639999198,90.1235985000094,90.82393660000525,90.81323919998249,,,,,,,,,,,,,,,,,,,,,,,,,,,,,,,,,,,,,,,,,,,,,,,,,,,,,,,,,,,,,,sub128,percept,6,0,2024-08-09_12h45.52.951,ASRT_percept,2023.2.3,59.787086232469456,2024-08-09 12h58.29.802375 +0800,
sequences/sub128_initial_random.csv,2,180,2,2,red,,,,0,0,0,0,0,51,51,51,,,,,,,,,,,,,,,,,,,,,,,,,,,,,90.82393660000525,,,,,,,,,,,,,90.81420409999555,90.82393660000525,90.82393660000525,91.01921749999747,91.45944279999821,2,1,0.6317986999929417,None,91.46009079998475,91.46581229998264,91.46581229998264,91.67226349998964,91.88244980000309,91.87576490000356,91.87582439999096,91.88244980000309,92.58262850000756,92.57411640000646,,,,,,,,,,,,,,,,,,,,,,,,,,,,,,,,,,,,,,,,,,,,,,,,,,,,,,,,,,,,,,sub128,percept,6,0,2024-08-09_12h45.52.951,ASRT_percept,2023.2.3,59.787086232469456,2024-08-09 12h58.29.802375 +0800,
sequences/sub128_initial_random.csv,1,90,1,3,red,,,,0,0,0,0,0,52,52,52,,,,,,,,,,,,,,,,,,,,,,,,,,,,,92.58262850000756,,,,,,,,,,,,,92.57501269999193,92.58262850000756,92.58262850000756,92.775796300004,93.10964559999411,3,1,0.5230573999870103,None,93.10991249998915,93.11595710000256,93.11595710000256,93.32447639998281,93.53301189999911,93.52593649999471,93.52595079998719,93.53301189999911,94.22736600000644,94.22073579998687,,,,,,,,,,,,,,,,,,,,,,,,,,,,,,,,,,,,,,,,,,,,,,,,,,,,,,,,,,,,,,sub128,percept,6,0,2024-08-09_12h45.52.951,ASRT_percept,2023.2.3,59.787086232469456,2024-08-09 12h58.29.802375 +0800,
sequences/sub128_initial_random.csv,0,0,0,4,red,,,,0,0,0,0,0,53,53,53,,,,,,,,,,,,,,,,,,,,,,,,,,,,,94.22736600000644,,,,,,,,,,,,,94.2209898000001,94.22736600000644,94.22736600000644,94.42139179998776,94.7769633999851,4,1,0.5446174000098836,None,94.77730399998836,94.78297989998828,94.78297989998828,94.99132390000159,95.19959119998384,95.19292450000648,95.19293879999896,95.19959119998384,95.89389919998939,95.8873246999865,,,,,,,,,,,,,,,,,,,,,,,,,,,,,,,,,,,,,,,,,,,,,,,,,,,,,,,,,,,,,,sub128,percept,6,0,2024-08-09_12h45.52.951,ASRT_percept,2023.2.3,59.787086232469456,2024-08-09 12h58.29.802375 +0800,
sequences/sub128_initial_random.csv,3,270,3,1,red,,,,0,0,0,0,0,54,54,54,,,,,,,,,,,,,,,,,,,,,,,,,,,,,95.89389919998939,,,,,,,,,,,,,95.88755179999862,95.89389919998939,95.89389919998939,96.08836249998421,96.31231529999059,1,1,0.4146949999849312,None,96.31272329998319,96.31756579998182,96.31756579998182,96.52645020000637,96.73459059998277,96.72793150000507,96.72796099999687,96.73459059998277,97.42828689998714,97.42191919998731,,,,,,,,,,,,,,,,,,,,,,,,,,,,,,,,,,,,,,,,,,,,,,,,,,,,,,,,,,,,,,sub128,percept,6,0,2024-08-09_12h45.52.951,ASRT_percept,2023.2.3,59.787086232469456,2024-08-09 12h58.29.802375 +0800,
sequences/sub128_initial_random.csv,1,90,1,3,red,,,,0,0,0,0,0,55,55,55,,,,,,,,,,,,,,,,,,,,,,,,,,,,,97.42828689998714,,,,,,,,,,,,,97.42213669998455,97.42828689998714,97.42828689998714,97.62273869998171,97.82493259999319,3,1,0.3949276000203099,None,97.8252019000065,97.83123740000883,97.83123740000883,98.04000750000705,98.24773229999118,98.24123729998246,98.24125200000708,98.24773229999118,98.94629619998159,98.9376912000007,,,,,,,,,,,,,,,,,,,,,,,,,,,,,,,,,,,,,,,,,,,,,,,,,,,,,,,,,,,,,,sub128,percept,6,0,2024-08-09_12h45.52.951,ASRT_percept,2023.2.3,59.787086232469456,2024-08-09 12h58.29.802375 +0800,
sequences/sub128_initial_random.csv,3,270,3,1,red,,,,0,0,0,0,0,56,56,56,,,,,,,,,,,,,,,,,,,,,,,,,,,,,98.94629619998159,,,,,,,,,,,,,98.9386697000009,98.94629619998159,98.94629619998159,99.13871699999436,99.49423250000109,1,1,0.5447397000098135,None,99.49487659998704,99.50288069999078,99.50288069999078,99.70701189999818,99.91519790000166,99.90904850000516,99.90908729998046,99.91519790000166,100.61034149999614,100.60434709998663,,,,,,,,,,,,,,,,,,,,,,,,,,,,,,,,,,,,,,,,,,,,,,,,,,,,,,,,,,,,,,sub128,percept,6,0,2024-08-09_12h45.52.951,ASRT_percept,2023.2.3,59.787086232469456,2024-08-09 12h58.29.802375 +0800,
sequences/sub128_initial_random.csv,3,270,3,1,red,,,,0,0,0,0,0,57,57,57,,,,,,,,,,,,,,,,,,,,,,,,,,,,,100.61034149999614,,,,,,,,,,,,,100.60494910000125,100.61034149999614,100.61034149999614,100.80393449999974,101.01563109998824,1,1,0.40231770000536926,None,101.01627659998485,101.02314189999015,101.02314189999015,101.22728419999476,101.43614689999959,101.43048139999155,101.43053179999697,101.43614689999959,102.1301633999974,102.12424370000372,,,,,,,,,,,,,,,,,,,,,,,,,,,,,,,,,,,,,,,,,,,,,,,,,,,,,,,,,,,,,,sub128,percept,6,0,2024-08-09_12h45.52.951,ASRT_percept,2023.2.3,59.787086232469456,2024-08-09 12h58.29.802375 +0800,
sequences/sub128_initial_random.csv,1,90,1,3,red,,,,0,0,0,0,0,58,58,58,,,,,,,,,,,,,,,,,,,,,,,,,,,,,102.1301633999974,,,,,,,,,,,,,102.12473260000115,102.1301633999974,102.1301633999974,102.32458319998113,102.50263370000175,3,1,0.36924840000574477,None,102.50369599999976,102.51232499998878,102.51232499998878,102.71400979999453,102.92469559999881,102.91900969998096,102.91905379999662,102.92469559999881,103.61624279999523,103.61051949998364,,,,,,,,,,,,,,,,,,,,,,,,,,,,,,,,,,,,,,,,,,,,,,,,,,,,,,,,,,,,,,sub128,percept,6,0,2024-08-09_12h45.52.951,ASRT_percept,2023.2.3,59.787086232469456,2024-08-09 12h58.29.802375 +0800,
sequences/sub128_initial_random.csv,3,270,3,1,red,,,,0,0,0,0,0,59,59,59,,,,,,,,,,,,,,,,,,,,,,,,,,,,,103.61624279999523,,,,,,,,,,,,,103.61103830000502,103.61624279999523,103.61624279999523,103.81089239998255,104.00228200000129,1,1,0.38092530000722036,None,104.00307149998844,104.01128659999813,104.01128659999813,104.21361819998128,104.42167129999143,104.4160634999862,104.41610919998493,104.42167129999143,105.11601929998142,105.11056739999913,,,,,,,,,,,,,,,,,,,,,,,,,,,,,,,,,,,,,,,,,,,,,,,,,,,,,,,,,,,,,,sub128,percept,6,0,2024-08-09_12h45.52.951,ASRT_percept,2023.2.3,59.787086232469456,2024-08-09 12h58.29.802375 +0800,
sequences/sub128_initial_random.csv,2,180,2,2,red,,,,0,0,0,0,0,60,60,60,,,,,,,,,,,,,,,,,,,,,,,,,,,,,105.11601929998142,,,,,,,,,,,,,105.11115769998287,105.11601929998142,105.11601929998142,105.31072419998236,105.70773219998227,2,1,0.5843720000120811,None,105.7085082999838,105.71347909999895,105.71347909999895,105.92188879998866,106.13036310000462,106.12390519998735,106.12393969998811,106.13036310000462,106.8275932999968,106.81911630000104,,,,,,,,,,,,,,,,,,,,,,,,,,,,,,,,,,,,,,,,,,,,,,,,,,,,,,,,,,,,,,sub128,percept,6,0,2024-08-09_12h45.52.951,ASRT_percept,2023.2.3,59.787086232469456,2024-08-09 12h58.29.802375 +0800,
sequences/sub128_initial_random.csv,3,270,3,1,red,,,,0,0,0,0,0,61,61,61,,,,,,,,,,,,,,,,,,,,,,,,,,,,,106.8275932999968,,,,,,,,,,,,,106.82048819999909,106.8275932999968,106.8275932999968,107.0189309999987,107.32746329999645,1,1,0.4944798000215087,None,107.32820679998258,107.33428919999278,107.33428919999278,107.54000849998556,107.7481971999805,107.74289749999298,107.74299520000932,107.7481971999805,108.44318179998663,108.43670970000676,,,,,,,,,,,,,,,,,,,,,,,,,,,,,,,,,,,,,,,,,,,,,,,,,,,,,,,,,,,,,,sub128,percept,6,0,2024-08-09_12h45.52.951,ASRT_percept,2023.2.3,59.787086232469456,2024-08-09 12h58.29.802375 +0800,
sequences/sub128_initial_random.csv,1,90,1,3,red,,,,0,0,0,0,0,62,62,62,,,,,,,,,,,,,,,,,,,,,,,,,,,,,108.44318179998663,,,,,,,,,,,,,108.43727649998618,108.44318179998663,108.44318179998663,108.63729369998327,108.93811309998273,3,1,0.487379999976838,None,108.93877179999254,108.94533489999594,108.94533489999594,109.1507988999947,109.35920609999448,109.35415939998347,109.35420909998356,109.35920609999448,110.05339660000755,110.04744940000819,,,,,,,,,,,,,,,,,,,,,,,,,,,,,,,,,,,,,,,,,,,,,,,,,,,,,,,,,,,,,,sub128,percept,6,0,2024-08-09_12h45.52.951,ASRT_percept,2023.2.3,59.787086232469456,2024-08-09 12h58.29.802375 +0800,
sequences/sub128_initial_random.csv,0,0,0,4,red,,,,0,0,0,0,0,63,63,63,,,,,,,,,,,,,,,,,,,,,,,,,,,,,110.05339660000755,,,,,,,,,,,,,110.04793889998109,110.05339660000755,110.05339660000755,110.24856099998578,110.51547690000734,4,1,0.45914759999141097,None,110.51618559999042,110.52334389998578,110.52334389998578,110.72718590000295,110.93536219999078,110.93010900000809,110.93014939999557,110.93536219999078,111.63116200000513,111.62413029998424,,,,,,,,,,,,,,,,,,,,,,,,,,,,,,,,,,,,,,,,,,,,,,,,,,,,,,,,,,,,,,sub128,percept,6,0,2024-08-09_12h45.52.951,ASRT_percept,2023.2.3,59.787086232469456,2024-08-09 12h58.29.802375 +0800,
sequences/sub128_initial_random.csv,3,270,3,1,red,,,,0,0,0,0,0,64,64,64,,,,,,,,,,,,,,,,,,,,,,,,,,,,,111.63116200000513,,,,,,,,,,,,,111.62470859999303,111.63116200000513,111.63116200000513,111.82472699999926,112.02118989999872,1,1,0.38656769998488016,None,112.02186239999719,112.02822700000252,112.02822700000252,112.23438350000652,112.44236539999838,112.43710350000765,112.43714480000199,112.44236539999838,113.13710809999611,113.13147059999756,,,,,,,,,,,,,,,,,,,,,,,,,,,,,,,,,,,,,,,,,,,,,,,,,,,,,,,,,,,,,,sub128,percept,6,0,2024-08-09_12h45.52.951,ASRT_percept,2023.2.3,59.787086232469456,2024-08-09 12h58.29.802375 +0800,
sequences/sub128_initial_random.csv,3,270,3,1,red,,,,0,0,0,0,0,65,65,65,,,,,,,,,,,,,,,,,,,,,,,,,,,,,113.13710809999611,,,,,,,,,,,,,113.13200149999466,113.13710809999611,113.13710809999611,113.33134289999725,113.57746470000711,1,1,0.4338626000098884,None,113.57819909998216,113.58468509998056,113.58468509998056,113.78978970000753,113.99796549999155,113.99257329999818,113.99261839999235,113.99796549999155,114.69305400000303,114.68700810000882,,,,,,,,,,,,,,,,,,,,,,,,,,,,,,,,,,,,,,,,,,,,,,,,,,,,,,,,,,,,,,sub128,percept,6,0,2024-08-09_12h45.52.951,ASRT_percept,2023.2.3,59.787086232469456,2024-08-09 12h58.29.802375 +0800,
sequences/sub128_initial_random.csv,0,0,0,4,red,,,,0,0,0,0,0,66,66,66,,,,,,,,,,,,,,,,,,,,,,,,,,,,,114.69305400000303,,,,,,,,,,,,,114.68764069999452,114.69305400000303,114.69305400000303,114.88759269998991,115.13338709998061,4,1,0.4372752000053879,None,115.1339791000064,115.13932220000424,115.13932220000424,115.34511880000355,115.55449660000158,115.54836409998825,115.54840840000543,115.55449660000158,116.24857039999915,116.24236969999038,,,,,,,,,,,,,,,,,,,,,,,,,,,,,,,,,,,,,,,,,,,,,,,,,,,,,,,,,,,,,,sub128,percept,6,0,2024-08-09_12h45.52.951,ASRT_percept,2023.2.3,59.787086232469456,2024-08-09 12h58.29.802375 +0800,
sequences/sub128_initial_random.csv,1,90,1,3,red,,,,0,0,0,0,0,67,67,67,,,,,,,,,,,,,,,,,,,,,,,,,,,,,116.24857039999915,,,,,,,,,,,,,116.24292119999882,116.24857039999915,116.24857039999915,116.44240179998451,116.60380710000754,3,1,0.34965860002557747,None,116.60431920000701,116.60972310000216,116.60972310000216,116.81726579999668,117.02588599998853,117.02008509999723,117.02012309999554,117.02588599998853,117.72086709999712,117.71457999999984,,,,,,,,,,,,,,,,,,,,,,,,,,,,,,,,,,,,,,,,,,,,,,,,,,,,,,,,,,,,,,sub128,percept,6,0,2024-08-09_12h45.52.951,ASRT_percept,2023.2.3,59.787086232469456,2024-08-09 12h58.29.802375 +0800,
sequences/sub128_initial_random.csv,1,90,1,3,red,,,,0,0,0,0,0,68,68,68,,,,,,,,,,,,,,,,,,,,,,,,,,,,,117.72086709999712,,,,,,,,,,,,,117.71521049999865,117.72086709999712,117.72086709999712,117.91504709998844,118.0972810999956,3,1,0.3716648000117857,None,118.09804340000846,118.10517789999722,118.10517789999722,118.31108919999679,118.51917719998164,118.51320119999582,118.51324929998373,118.51917719998164,119.21088619998773,119.20359889999963,,,,,,,,,,,,,,,,,,,,,,,,,,,,,,,,,,,,,,,,,,,,,,,,,,,,,,,,,,,,,,sub128,percept,6,0,2024-08-09_12h45.52.951,ASRT_percept,2023.2.3,59.787086232469456,2024-08-09 12h58.29.802375 +0800,
sequences/sub128_initial_random.csv,2,180,2,2,red,,,,0,0,0,0,0,69,69,69,,,,,,,,,,,,,,,,,,,,,,,,,,,,,119.21088619998773,,,,,,,,,,,,,119.20437069999753,119.21088619998773,119.21088619998773,119.401013900002,119.85457729999325,2,1,0.6368504999845754,None,119.85530830000062,119.86247439999715,119.86247439999715,120.06724329999997,120.27570759999799,120.26988169999095,120.26991869998164,120.27570759999799,120.97008820000337,120.96448319999035,,,,,,,,,,,,,,,,,,,,,,,,,,,,,,,,,,,,,,,,,,,,,,,,,,,,,,,,,,,,,,sub128,percept,6,0,2024-08-09_12h45.52.951,ASRT_percept,2023.2.3,59.787086232469456,2024-08-09 12h58.29.802375 +0800,
sequences/sub128_initial_random.csv,0,0,0,4,red,,,,0,0,0,0,0,70,70,70,,,,,,,,,,,,,,,,,,,,,,,,,,,,,120.97008820000337,,,,,,,,,,,,,120.9651268000016,120.97008820000337,120.97008820000337,121.16457540000556,121.43819689998054,4,1,0.46347550000064075,None,121.43906949998927,121.44449140000506,121.44449140000506,121.65075959998649,121.85907380000572,121.85328989999834,121.85333549999632,121.85907380000572,122.55676649999805,122.54964660000405,,,,,,,,,,,,,,,,,,,,,,,,,,,,,,,,,,,,,,,,,,,,,,,,,,,,,,,,,,,,,,sub128,percept,6,0,2024-08-09_12h45.52.951,ASRT_percept,2023.2.3,59.787086232469456,2024-08-09 12h58.29.802375 +0800,
sequences/sub128_initial_random.csv,1,90,1,3,red,,,,0,0,0,0,0,71,71,71,,,,,,,,,,,,,,,,,,,,,,,,,,,,,122.55676649999805,,,,,,,,,,,,,122.55045099998824,122.55676649999805,122.55676649999805,122.74867760000052,122.98720119998325,3,1,0.42288190001272596,None,122.98799289998715,122.99528519998421,122.99528519998421,123.19894639999256,123.40816399999312,123.40224809999927,123.40229880000697,123.40816399999312,124.10319749999326,124.09701349999523,,,,,,,,,,,,,,,,,,,,,,,,,,,,,,,,,,,,,,,,,,,,,,,,,,,,,,,,,,,,,,sub128,percept,6,0,2024-08-09_12h45.52.951,ASRT_percept,2023.2.3,59.787086232469456,2024-08-09 12h58.29.802375 +0800,
sequences/sub128_initial_random.csv,0,0,0,4,red,,,,0,0,0,0,0,72,72,72,,,,,,,,,,,,,,,,,,,,,,,,,,,,,124.10319749999326,,,,,,,,,,,,,124.09769229998346,124.10319749999326,124.10319749999326,124.29664270000649,124.5132253000047,4,1,0.4027069000003394,None,124.51376909998362,124.51990529999603,124.51990529999603,124.72742859998834,124.93513669999084,124.9299583999964,124.93000829999801,124.93513669999084,125.63126160000684,125.62411730000167,,,,,,,,,,,,,,,,,,,,,,,,,,,,,,,,,,,,,,,,,,,,,,,,,,,,,,,,,,,,,,sub128,percept,6,0,2024-08-09_12h45.52.951,ASRT_percept,2023.2.3,59.787086232469456,2024-08-09 12h58.29.802375 +0800,
sequences/sub128_initial_random.csv,2,180,2,2,red,,,,0,0,0,0,0,73,73,73,,,,,,,,,,,,,,,,,,,,,,,,,,,,,125.63126160000684,,,,,,,,,,,,,125.62480859999778,125.63126160000684,125.63126160000684,125.82413850000012,126.27786509998259,2,1,0.6414424999966286,None,126.27859460000764,126.28515129999141,126.28515129999141,126.49093659999198,126.69906829998945,126.69384510000236,126.69390290000592,126.69906829998945,127.39454249999835,127.38788209998165,,,,,,,,,,,,,,,,,,,,,,,,,,,,,,,,,,,,,,,,,,,,,,,,,,,,,,,,,,,,,,sub128,percept,6,0,2024-08-09_12h45.52.951,ASRT_percept,2023.2.3,59.787086232469456,2024-08-09 12h58.29.802375 +0800,
sequences/sub128_initial_random.csv,2,180,2,2,red,,,,0,0,0,0,0,74,74,74,,,,,,,,,,,,,,,,,,,,,,,,,,,,,127.39454249999835,,,,,,,,,,,,,127.38855730000068,127.39454249999835,127.39454249999835,127.58888599998318,128.0482640999835,2,1,0.6493759000150021,None,128.04890199998044,128.054209599999,128.054209599999,128.26171729998896,128.46977179998066,128.4643087000004,128.46434909998788,128.46977179998066,129.16448099998524,129.1583849999879,,,,,,,,,,,,,,,,,,,,,,,,,,,,,,,,,,,,,,,,,,,,,,,,,,,,,,,,,,,,,,sub128,percept,6,0,2024-08-09_12h45.52.951,ASRT_percept,2023.2.3,59.787086232469456,2024-08-09 12h58.29.802375 +0800,
sequences/sub128_initial_random.csv,1,90,1,3,red,,,,0,0,0,0,0,75,75,75,,,,,,,,,,,,,,,,,,,,,,,,,,,,,129.16448099998524,,,,,,,,,,,,,129.15888750000158,129.16448099998524,129.16448099998524,129.35875799998757,129.7192104999849,3,1,0.5501322000054643,None,129.72016389999771,129.72856799999136,129.72856799999136,129.92845599999418,130.13701790000778,130.1308946000063,130.1309408999805,130.13701790000778,130.8324250000005,130.82555680000223,,,,,,,,,,,,,,,,,,,,,,,,,,,,,,,,,,,,,,,,,,,,,,,,,,,,,,,,,,,,,,sub128,percept,6,0,2024-08-09_12h45.52.951,ASRT_percept,2023.2.3,59.787086232469456,2024-08-09 12h58.29.802375 +0800,
sequences/sub128_initial_random.csv,1,90,1,3,red,,,,0,0,0,0,0,76,76,76,,,,,,,,,,,,,,,,,,,,,,,,,,,,,130.8324250000005,,,,,,,,,,,,,130.82619709998835,130.8324250000005,130.8324250000005,131.02627709999797,131.221097200003,3,1,0.38351839999086224,None,131.22134649998043,131.2284715999849,131.2284715999849,131.43541269999696,131.64357660000678,131.6378803999978,131.63791990000755,131.64357660000678,132.34115890000248,132.33353889998398,,,,,,,,,,,,,,,,,,,,,,,,,,,,,,,,,,,,,,,,,,,,,,,,,,,,,,,,,,,,,,sub128,percept,6,0,2024-08-09_12h45.52.951,ASRT_percept,2023.2.3,59.787086232469456,2024-08-09 12h58.29.802375 +0800,
sequences/sub128_initial_random.csv,3,270,3,1,red,,,,0,0,0,0,0,77,77,77,,,,,,,,,,,,,,,,,,,,,,,,,,,,,132.34115890000248,,,,,,,,,,,,,132.33434470000793,132.34115890000248,132.34115890000248,132.53220359998522,132.7147907000035,1,1,0.3691897999960929,None,132.71544110000832,132.72139819999575,132.72139819999575,132.9284274999809,133.13660860000527,133.13027150000562,133.13030550000258,133.13660860000527,133.83405589999165,133.82793699999456,,,,,,,,,,,,,,,,,,,,,,,,,,,,,,,,,,,,,,,,,,,,,,,,,,,,,,,,,,,,,,sub128,percept,6,0,2024-08-09_12h45.52.951,ASRT_percept,2023.2.3,59.787086232469456,2024-08-09 12h58.29.802375 +0800,
sequences/sub128_initial_random.csv,2,180,2,2,red,,,,0,0,0,0,0,78,78,78,,,,,,,,,,,,,,,,,,,,,,,,,,,,,133.83405589999165,,,,,,,,,,,,,133.82863050000742,133.83405589999165,133.83405589999165,134.0282506000076,134.40335789998062,2,1,0.5632461000059266,None,134.4041784000001,134.41000350000104,134.41000350000104,134.61568630000693,134.8239639000094,134.81854579999344,134.81859629999963,134.8239639000094,135.5182541999966,135.5119371000037,,,,,,,,,,,,,,,,,,,,,,,,,,,,,,,,,,,,,,,,,,,,,,,,,,,,,,,,,,,,,,sub128,percept,6,0,2024-08-09_12h45.52.951,ASRT_percept,2023.2.3,59.787086232469456,2024-08-09 12h58.29.802375 +0800,
sequences/sub128_initial_random.csv,3,270,3,1,red,,,,0,0,0,0,0,79,79,79,,,,,,,,,,,,,,,,,,,,,,,,,,,,,135.5182541999966,,,,,,,,,,,,,135.51241130000562,135.5182541999966,135.5182541999966,135.7131979999831,135.91652850000537,1,1,0.3909511000092607,None,135.9173738999816,135.923490199988,135.923490199988,136.1294852999854,136.33805510000093,136.33198299998185,136.3320231999969,136.33805510000093,137.0321677000029,137.0263957999996,,,,,,,,,,,,,,,,,,,,,,,,,,,,,,,,,,,,,,,,,,,,,,,,,,,,,,,,,,,,,,sub128,percept,6,0,2024-08-09_12h45.52.951,ASRT_percept,2023.2.3,59.787086232469456,2024-08-09 12h58.29.802375 +0800,
sequences/sub128_initial_random.csv,1,90,1,3,red,,,,0,0,0,0,0,80,80,80,,,,,,,,,,,,,,,,,,,,,,,,,,,,,137.0321677000029,,,,,,,,,,,,,137.02702429998317,137.0321677000029,137.0321677000029,137.22694039999624,137.50701390000177,3,1,0.4669870999932755,None,137.50767339998856,137.51279229999636,137.51279229999636,137.72021649999078,137.92866350000259,137.92324619999272,137.92329189999145,137.92866350000259,138.62568749999627,138.6173002999858,,,,,,,,,,,,,,,,,,,,,,,,,,,,,,,,,,,,,,,,,,,,,,,,,,,,,,,,,,,,,,sub128,percept,6,0,2024-08-09_12h45.52.951,ASRT_percept,2023.2.3,59.787086232469456,2024-08-09 12h58.29.802375 +0800,
sequences/sub128_initial_random.csv,3,270,3,1,red,,,,0,0,0,0,0,81,81,81,,,,,,,,,,,,,,,,,,,,,,,,,,,,,138.62568749999627,,,,,,,,,,,,,138.61800469999434,138.62568749999627,138.62568749999627,138.81690059998073,139.12456649998785,1,1,0.49445669999113306,None,139.12521910000942,139.13070300000254,139.13070300000254,139.3379736999923,139.5460470999824,139.54086469998583,139.54090989998076,139.5460470999824,140.24101359999622,140.23502940000617,,,,,,,,,,,,,,,,,,,,,,,,,,,,,,,,,,,,,,,,,,,,,,,,,,,,,,,,,,,,,,sub128,percept,6,0,2024-08-09_12h45.52.951,ASRT_percept,2023.2.3,59.787086232469456,2024-08-09 12h58.29.802375 +0800,
sequences/sub128_initial_random.csv,1,90,1,3,red,,,,0,0,0,0,0,82,82,82,,,,,,,,,,,,,,,,,,,,,,,,,,,,,140.24101359999622,,,,,,,,,,,,,140.23574309999822,140.24101359999622,140.24101359999622,140.43532819999382,140.7099351999932,3,1,0.45975650000036694,None,140.71064479998313,140.71708780000336,140.71708780000336,140.92166369999177,141.12961469998118,141.12386999998125,141.12391009999556,141.12961469998118,141.82491699999082,141.8179769999988,,,,,,,,,,,,,,,,,,,,,,,,,,,,,,,,,,,,,,,,,,,,,,,,,,,,,,,,,,,,,,sub128,percept,6,0,2024-08-09_12h45.52.951,ASRT_percept,2023.2.3,59.787086232469456,2024-08-09 12h58.29.802375 +0800,
sequences/sub128_initial_random.csv,3,270,3,1,red,,,,0,0,0,0,0,83,83,83,,,,,,,,,,,,,,,,,,,,,,,,,,,,,141.82491699999082,,,,,,,,,,,,,141.81856329998118,141.82491699999082,141.82491699999082,142.01844359998358,142.2871313999931,1,1,0.458532099990407,None,142.28875959999277,142.2972211999877,142.2972211999877,142.49751109999488,142.70582830000785,142.69977209999342,142.69981309998548,142.70582830000785,143.40165049998905,143.39469559999998,,,,,,,,,,,,,,,,,,,,,,,,,,,,,,,,,,,,,,,,,,,,,,,,,,,,,,,,,,,,,,sub128,percept,6,0,2024-08-09_12h45.52.951,ASRT_percept,2023.2.3,59.787086232469456,2024-08-09 12h58.29.802375 +0800,
sequences/sub128_initial_random.csv,3,270,3,1,red,,,,0,0,0,0,0,84,84,84,,,,,,,,,,,,,,,,,,,,,,,,,,,,,143.40165049998905,,,,,,,,,,,,,143.3952905999904,143.40165049998905,143.40165049998905,143.5952011999907,143.81810539998696,1,1,0.40985039999941364,None,143.81874109999626,143.8238718000066,143.8238718000066,144.0323772999982,144.24069189999136,144.23429319998831,144.23432879999746,144.24069189999136,144.96457449998707,144.9290442999918,,,,,,,,,,,,,,,,,,,,,,,,,,,,,,,,,,,,,,,,,,,,,,,,,,,,,,,,,,,,,,sub128,percept,6,0,2024-08-09_12h45.52.951,ASRT_percept,2023.2.3,59.787086232469456,2024-08-09 12h58.29.802375 +0800,
,,,,,,,,,,,,,,,,,,,,,,,,,,,,,,,,,,,,,,,,,,,,,,,,,,,,,,,,,,,,,,,,,,,,,,,,,,,,,144.92920429998776,144.96457449998707,144.96457449998707,147.7070785999822,space,2.7383123000035994,None,147.70783080000547,147.7160939000023,147.7160939000023,147.7160939000023,156.53359340000316,space,8.814361599972472,None,,,,,,,,,,,,,,,,,,,,,,,,,,,,,,,,,,,,,,,,,,,,,,,sub128,percept,6,0,2024-08-09_12h45.52.951,ASRT_percept,2023.2.3,59.787086232469456,2024-08-09 12h58.29.802375 +0800,
,2,180,3,1,red,sequences/sub128_practice_sequence_00.csv,,,,,,,,,,,0,0,0,0,0,0,0,44,,,,,,,,,,,,,,,,,,,,,157.5670558999991,,,,,,,,,,156.55424269998912,156.5584954000078,157.5392203000083,157.5612870999903,157.5670558999991,157.5670558999991,157.7615466999996,158.18878339999355,1,1,0.6186064999783412,None,158.19097949998104,158.19993509998312,158.19993509998312,158.40024970000377,158.60849339998094,158.60260320000816,158.60264800000004,158.60849339998094,159.30236299999524,159.2968115999829,,,,,,,,,,,,,,,,,,,,,,,,,,,,,,,,,,,,,,,,,,,,,,,,,,,,,,,,,,,,,,sub128,percept,6,0,2024-08-09_12h45.52.951,ASRT_percept,2023.2.3,59.787086232469456,2024-08-09 12h58.29.802375 +0800,
,3,270,0,4,red,sequences/sub128_practice_sequence_00.csv,,,,,,,,,,,0,0,0,0,0,1,1,39,,,,,,,,,,,,,,,,,,,,,159.30236299999524,,,,,,,,,,,,,159.29737310000928,159.30236299999524,159.30236299999524,159.49716880000778,159.99976279999828,4,1,0.694136600010097,None,160.00061069999356,160.00767130000168,160.00767130000168,160.2125362000079,160.42054170000483,160.4147004999977,160.41474169999128,160.42054170000483,161.11559549998492,161.10904660000233,,,,,,,,,,,,,,,,,,,,,,,,,,,,,,,,,,,,,,,,,,,,,,,,,,,,,,,,,,,,,,sub128,percept,6,0,2024-08-09_12h45.52.951,ASRT_percept,2023.2.3,59.787086232469456,2024-08-09 12h58.29.802375 +0800,
,3,270,0,4,red,sequences/sub128_practice_sequence_00.csv,,,,,,,,,,,0,0,0,0,0,2,2,13,,,,,,,,,,,,,,,,,,,,,161.11559549998492,,,,,,,,,,,,,161.10963719998836,161.11559549998492,161.11559549998492,161.3096532000054,161.65980429999763,4,1,0.5371882999897934,None,161.66059670000686,161.66773270000704,161.66773270000704,161.87184279999929,162.0806397999986,162.07470219998504,162.07474379998166,162.0806397999986,162.77598479998414,162.76925759998267,,,,,,,,,,,,,,,,,,,,,,,,,,,,,,,,,,,,,,,,,,,,,,,,,,,,,,,,,,,,,,sub128,percept,6,0,2024-08-09_12h45.52.951,ASRT_percept,2023.2.3,59.787086232469456,2024-08-09 12h58.29.802375 +0800,
,2,180,3,1,red,sequences/sub128_practice_sequence_00.csv,,,,,,,,,,,0,0,0,0,0,3,3,16,,,,,,,,,,,,,,,,,,,,,162.77598479998414,,,,,,,,,,,,,162.76997629998368,162.77598479998414,162.77598479998414,162.96935810000286,163.42890890000854,1,1,0.6493952999881003,None,163.42945289998897,163.4355249000073,163.4355249000073,163.64299769999343,163.8513308999827,163.84566399999312,163.84570939998957,163.8513308999827,164.54668880000827,164.54004239998176,,,,,,,,,,,,,,,,,,,,,,,,,,,,,,,,,,,,,,,,,,,,,,,,,,,,,,,,,,,,,,sub128,percept,6,0,2024-08-09_12h45.52.951,ASRT_percept,2023.2.3,59.787086232469456,2024-08-09 12h58.29.802375 +0800,
,1,90,2,2,red,sequences/sub128_practice_sequence_00.csv,,,,,,,,,,,0,0,0,0,0,4,4,48,,,,,,,,,,,,,,,,,,,,,164.54668880000827,,,,,,,,,,,,,164.54081370000495,164.54668880000827,164.54668880000827,164.7405300999817,165.22540130000561,2,1,0.6758119000005536,None,165.2262902999937,165.23482379998313,165.23482379998313,165.4370801000041,165.64290370000526,165.63742459999048,165.637459199992,165.64290370000526,166.33979880000697,166.33203530000173,,,,,,,,,,,,,,,,,,,,,,,,,,,,,,,,,,,,,,,,,,,,,,,,,,,,,,,,,,,,,,sub128,percept,6,0,2024-08-09_12h45.52.951,ASRT_percept,2023.2.3,59.787086232469456,2024-08-09 12h58.29.802375 +0800,
,1,90,2,2,red,sequences/sub128_practice_sequence_00.csv,,,,,,,,,,,0,0,0,0,0,5,5,53,,,,,,,,,,,,,,,,,,,,,166.33979880000697,,,,,,,,,,,,,166.33286059999955,166.33979880000697,166.33979880000697,166.5316535999882,166.7509186999814,2,1,0.40638310002395883,None,166.75162759999512,166.75779370000237,166.75779370000237,166.96253339998657,167.17076069998438,167.1647823000094,167.1648237000045,167.17076069998438,167.86545620000106,167.85925770000904,,,,,,,,,,,,,,,,,,,,,,,,,,,,,,,,,,,,,,,,,,,,,,,,,,,,,,,,,,,,,,sub128,percept,6,0,2024-08-09_12h45.52.951,ASRT_percept,2023.2.3,59.787086232469456,2024-08-09 12h58.29.802375 +0800,
,0,0,1,3,red,sequences/sub128_practice_sequence_00.csv,,,,,,,,,,,0,0,0,0,0,6,6,3,,,,,,,,,,,,,,,,,,,,,167.86545620000106,,,,,,,,,,,,,167.85987759998534,167.86545620000106,167.86545620000106,168.05959950000397,168.31209570000647,3,1,0.442223499994725,None,168.31273420000798,168.31768139998894,168.31768139998894,168.52449039998464,168.73455550000654,168.72807650000323,168.7281415000034,168.73455550000654,169.42712780000875,169.42162459998508,,,,,,,,,,,,,,,,,,,,,,,,,,,,,,,,,,,,,,,,,,,,,,,,,,,,,,,,,,,,,,sub128,percept,6,0,2024-08-09_12h45.52.951,ASRT_percept,2023.2.3,59.787086232469456,2024-08-09 12h58.29.802375 +0800,
,1,90,2,2,red,sequences/sub128_practice_sequence_00.csv,,,,,,,,,,,0,0,0,0,0,7,7,36,,,,,,,,,,,,,,,,,,,,,169.42712780000875,,,,,,,,,,,,,169.42229059999227,169.42712780000875,169.42712780000875,169.62195119998069,169.98609900000156,2,1,0.5560308999847621,None,169.98681810000562,169.99351599998772,169.99351599998772,170.1981344000087,170.40630479998072,170.40116459998535,170.40121459998772,170.40630479998072,171.10228759999154,171.09529599998496,,,,,,,,,,,,,,,,,,,,,,,,,,,,,,,,,,,,,,,,,,,,,,,,,,,,,,,,,,,,,,sub128,percept,6,0,2024-08-09_12h45.52.951,ASRT_percept,2023.2.3,59.787086232469456,2024-08-09 12h58.29.802375 +0800,
,1,90,2,2,red,sequences/sub128_practice_sequence_00.csv,,,,,,,,,,,0,0,0,0,0,8,8,19,,,,,,,,,,,,,,,,,,,,,171.10228759999154,,,,,,,,,,,,,171.09606779998285,171.10228759999154,171.10228759999154,171.2957792999805,171.50011120000272,2,1,0.39280579998739995,None,171.50081719999434,171.50621920000413,171.50621920000413,171.7147839999816,171.92115969999577,171.91674379998585,171.91678440000396,171.92115969999577,172.61718729999848,172.6099211999972,,,,,,,,,,,,,,,,,,,,,,,,,,,,,,,,,,,,,,,,,,,,,,,,,,,,,,,,,,,,,,sub128,percept,6,0,2024-08-09_12h45.52.951,ASRT_percept,2023.2.3,59.787086232469456,2024-08-09 12h58.29.802375 +0800,
,1,90,2,2,red,sequences/sub128_practice_sequence_00.csv,,,,,,,,,,,0,0,0,0,0,9,9,32,,,,,,,,,,,,,,,,,,,,,172.61718729999848,,,,,,,,,,,,,172.61063529999228,172.61718729999848,172.61718729999848,172.80971390000195,173.00691480000387,2,1,0.3819997000100557,None,173.00761840000632,173.0149887999869,173.0149887999869,173.21908059998532,173.42782219999935,173.42135019999114,173.4213911999832,173.42782219999935,174.1267217999848,174.11701369998627,,,,,,,,,,,,,,,,,,,,,,,,,,,,,,,,,,,,,,,,,,,,,,,,,,,,,,,,,,,,,,sub128,percept,6,0,2024-08-09_12h45.52.951,ASRT_percept,2023.2.3,59.787086232469456,2024-08-09 12h58.29.802375 +0800,
,1,90,2,2,red,sequences/sub128_practice_sequence_00.csv,,,,,,,,,,,0,0,0,0,0,10,10,33,,,,,,,,,,,,,,,,,,,,,174.1267217999848,,,,,,,,,,,,,174.11782529999618,174.1267217999848,174.1267217999848,174.31745370000135,174.50348849999136,2,1,0.3707558000169229,None,174.50452210000367,174.51213809999172,174.51213809999172,174.7127896999882,174.92056450000382,174.91440320000402,174.91444510000292,174.92056450000382,175.61545730000944,175.6088621999952,,,,,,,,,,,,,,,,,,,,,,,,,,,,,,,,,,,,,,,,,,,,,,,,,,,,,,,,,,,,,,sub128,percept,6,0,2024-08-09_12h45.52.951,ASRT_percept,2023.2.3,59.787086232469456,2024-08-09 12h58.29.802375 +0800,
,2,180,3,1,red,sequences/sub128_practice_sequence_00.csv,,,,,,,,,,,0,0,0,0,0,11,11,11,,,,,,,,,,,,,,,,,,,,,175.61545730000944,,,,,,,,,,,,,175.6095059000072,175.61545730000944,175.61545730000944,175.80969870000263,176.20213669998338,1,1,0.58309949998511,None,176.202950899984,176.21224989998154,176.21224989998154,176.41359640000155,176.6215305000078,176.6161102000042,176.61615759998676,176.6215305000078,177.32001659998787,177.3105219999852,,,,,,,,,,,,,,,,,,,,,,,,,,,,,,,,,,,,,,,,,,,,,,,,,,,,,,,,,,,,,,sub128,percept,6,0,2024-08-09_12h45.52.951,ASRT_percept,2023.2.3,59.787086232469456,2024-08-09 12h58.29.802375 +0800,
,2,180,3,1,red,sequences/sub128_practice_sequence_00.csv,,,,,,,,,,,0,0,0,0,0,12,12,65,,,,,,,,,,,,,,,,,,,,,177.32001659998787,,,,,,,,,,,,,177.3111721999885,177.32001659998787,177.32001659998787,177.51093230000697,177.78084049999597,1,1,0.44957070000236854,None,177.78275600000052,177.7928191999963,177.7928191999963,177.99010029999772,178.1979592999851,178.19207669998286,178.19211420000647,178.1979592999851,178.8919884999923,178.88660989998607,,,,,,,,,,,,,,,,,,,,,,,,,,,,,,,,,,,,,,,,,,,,,,,,,,,,,,,,,,,,,,sub128,percept,6,0,2024-08-09_12h45.52.951,ASRT_percept,2023.2.3,59.787086232469456,2024-08-09 12h58.29.802375 +0800,
,3,270,0,4,red,sequences/sub128_practice_sequence_00.csv,,,,,,,,,,,0,0,0,0,0,13,13,14,,,,,,,,,,,,,,,,,,,,,178.8919884999923,,,,,,,,,,,,,178.8872713999881,178.8919884999923,178.8919884999923,179.08716759999515,179.40231279999716,4,1,0.5030083000019658,None,179.40310709999176,179.4089039999817,179.4089039999817,179.61473909998313,179.82329500000924,179.81768449998344,179.81772230000934,179.82329500000924,180.51925449998816,180.51216719998047,,,,,,,,,,,,,,,,,,,,,,,,,,,,,,,,,,,,,,,,,,,,,,,,,,,,,,,,,,,,,,sub128,percept,6,0,2024-08-09_12h45.52.951,ASRT_percept,2023.2.3,59.787086232469456,2024-08-09 12h58.29.802375 +0800,
,1,90,2,2,red,sequences/sub128_practice_sequence_00.csv,,,,,,,,,,,0,0,0,0,0,14,14,24,,,,,,,,,,,,,,,,,,,,,180.51925449998816,,,,,,,,,,,,,180.51288940000813,180.51925449998816,180.51925449998816,180.7122939999972,181.32585659998585,2,1,0.8011492000077851,None,181.32656869999482,181.3345447999891,181.3345447999891,181.53798150000512,181.74707340000896,181.74115039999015,181.74120990000665,181.74707340000896,182.44273280000198,182.43569059998845,,,,,,,,,,,,,,,,,,,,,,,,,,,,,,,,,,,,,,,,,,,,,,,,,,,,,,,,,,,,,,sub128,percept,6,0,2024-08-09_12h45.52.951,ASRT_percept,2023.2.3,59.787086232469456,2024-08-09 12h58.29.802375 +0800,
,3,270,0,4,red,sequences/sub128_practice_sequence_00.csv,,,,,,,,,,,0,0,0,0,0,15,15,49,,,,,,,,,,,,,,,,,,,,,182.44273280000198,,,,,,,,,,,,,182.4365026000014,182.44273280000198,182.44273280000198,182.63570539999637,183.07749880000483,4,1,0.6306237999815494,None,183.0782859000028,183.08903169998666,183.08903169998666,183.28803259998676,183.49671999999555,183.49104429999716,183.49108879998676,183.49671999999555,184.19178979998105,184.18398869998055,,,,,,,,,,,,,,,,,,,,,,,,,,,,,,,,,,,,,,,,,,,,,,,,,,,,,,,,,,,,,,sub128,percept,6,0,2024-08-09_12h45.52.951,ASRT_percept,2023.2.3,59.787086232469456,2024-08-09 12h58.29.802375 +0800,
,2,180,3,1,red,sequences/sub128_practice_sequence_00.csv,,,,,,,,,,,0,0,0,0,0,16,16,0,,,,,,,,,,,,,,,,,,,,,184.19178979998105,,,,,,,,,,,,,184.18421039998066,184.19178979998105,184.19178979998105,184.3854894999822,184.52752139998483,1,1,0.3313975000055507,None,184.52824089999194,184.5332844000077,184.5332844000077,184.7396356999816,184.94774589998997,184.9414928999904,184.94150889999582,184.94774589998997,185.64217310000095,185.6366568999947,,,,,,,,,,,,,,,,,,,,,,,,,,,,,,,,,,,,,,,,,,,,,,,,,,,,,,,,,,,,,,sub128,percept,6,0,2024-08-09_12h45.52.951,ASRT_percept,2023.2.3,59.787086232469456,2024-08-09 12h58.29.802375 +0800,
,2,180,3,1,red,sequences/sub128_practice_sequence_00.csv,,,,,,,,,,,0,0,0,0,0,17,17,63,,,,,,,,,,,,,,,,,,,,,185.64217310000095,,,,,,,,,,,,,185.637293399981,185.64217310000095,185.64217310000095,185.83714640000835,186.11756250000326,1,1,0.4724729000008665,None,186.11844319998636,186.1258439999947,186.1258439999947,186.32987309998134,186.5377407000051,186.53298069999437,186.5330310999998,186.5377407000051,187.23270200000843,187.22698700000183,,,,,,,,,,,,,,,,,,,,,,,,,,,,,,,,,,,,,,,,,,,,,,,,,,,,,,,,,,,,,,sub128,percept,6,0,2024-08-09_12h45.52.951,ASRT_percept,2023.2.3,59.787086232469456,2024-08-09 12h58.29.802375 +0800,
,0,0,1,3,red,sequences/sub128_practice_sequence_00.csv,,,,,,,,,,,0,0,0,0,0,18,18,80,,,,,,,,,,,,,,,,,,,,,187.23270200000843,,,,,,,,,,,,,187.22762779999175,187.23270200000843,187.23270200000843,187.42718219998642,187.56900829999358,3,1,0.3324115999857895,None,187.5705505000078,187.57700069999555,187.57700069999555,187.78068319999147,187.99187120000715,187.98424349998822,187.98430199999711,187.99187120000715,188.68380040000193,188.6782802999951,,,,,,,,,,,,,,,,,,,,,,,,,,,,,,,,,,,,,,,,,,,,,,,,,,,,,,,,,,,,,,sub128,percept,6,0,2024-08-09_12h45.52.951,ASRT_percept,2023.2.3,59.787086232469456,2024-08-09 12h58.29.802375 +0800,
,1,90,2,2,red,sequences/sub128_practice_sequence_00.csv,,,,,,,,,,,0,0,0,0,0,19,19,67,,,,,,,,,,,,,,,,,,,,,188.68380040000193,,,,,,,,,,,,,188.67886699998053,188.68380040000193,188.68380040000193,188.87882610000088,189.4160367999866,2,1,0.7246441999741364,None,189.41686430000118,189.42540010000812,189.42540010000812,189.6310552000068,189.83729599998333,189.83147149998695,189.8315081000037,189.83729599998333,190.5326975999924,190.5259354999871,,,,,,,,,,,,,,,,,,,,,,,,,,,,,,,,,,,,,,,,,,,,,,,,,,,,,,,,,,,,,,sub128,percept,6,0,2024-08-09_12h45.52.951,ASRT_percept,2023.2.3,59.787086232469456,2024-08-09 12h58.29.802375 +0800,
,2,180,3,1,red,sequences/sub128_practice_sequence_00.csv,,,,,,,,,,,0,0,0,0,0,20,20,46,,,,,,,,,,,,,,,,,,,,,190.5326975999924,,,,,,,,,,,,,190.5266444000008,190.5326975999924,190.5326975999924,190.72644689999288,191.0899126000004,1,1,0.5516785999934655,None,191.09080969999195,191.0983537999855,191.0983537999855,191.30188759998418,191.51083280000603,191.50503979998757,191.50509809999494,191.51083280000603,192.20681070000865,192.1990792999859,,,,,,,,,,,,,,,,,,,,,,,,,,,,,,,,,,,,,,,,,,,,,,,,,,,,,,,,,,,,,,sub128,percept,6,0,2024-08-09_12h45.52.951,ASRT_percept,2023.2.3,59.787086232469456,2024-08-09 12h58.29.802375 +0800,
,3,270,0,4,red,sequences/sub128_practice_sequence_00.csv,,,,,,,,,,,0,0,0,0,0,21,21,15,,,,,,,,,,,,,,,,,,,,,192.20681070000865,,,,,,,,,,,,,192.19969330000458,192.20681070000865,192.20681070000865,192.39945989998523,192.61723319999874,4,1,0.402899399981834,None,192.6180272999918,192.62526100000832,192.62526100000832,192.82948210000177,193.0382425999851,193.03228149999632,193.0323187999893,193.0382425999851,193.7356906000059,193.72667830000864,,,,,,,,,,,,,,,,,,,,,,,,,,,,,,,,,,,,,,,,,,,,,,,,,,,,,,,,,,,,,,sub128,percept,6,0,2024-08-09_12h45.52.951,ASRT_percept,2023.2.3,59.787086232469456,2024-08-09 12h58.29.802375 +0800,
,3,270,0,4,red,sequences/sub128_practice_sequence_00.csv,,,,,,,,,,,0,0,0,0,0,22,22,21,,,,,,,,,,,,,,,,,,,,,193.7356906000059,,,,,,,,,,,,,193.727438300004,193.7356906000059,193.7356906000059,193.92745489999652,194.15147119999165,4,1,0.4074217999877874,None,194.15224510000553,194.1586227999942,194.1586227999942,194.3643075999862,194.57289969999692,194.56740639999043,194.5674519999884,194.57289969999692,195.2695628000074,195.26173979998566,,,,,,,,,,,,,,,,,,,,,,,,,,,,,,,,,,,,,,,,,,,,,,,,,,,,,,,,,,,,,,sub128,percept,6,0,2024-08-09_12h45.52.951,ASRT_percept,2023.2.3,59.787086232469456,2024-08-09 12h58.29.802375 +0800,
,1,90,2,2,red,sequences/sub128_practice_sequence_00.csv,,,,,,,,,,,0,0,0,0,0,23,23,9,,,,,,,,,,,,,,,,,,,,,195.2695628000074,,,,,,,,,,,,,195.2624547999876,195.2695628000074,195.2695628000074,195.46175289998064,195.92487729998538,2,1,0.6514405999914743,None,195.9257118999958,195.93217699998058,195.93217699998058,196.1354791999911,196.34376479999628,196.33754380000755,196.33757609999157,196.34376479999628,197.03838839998934,197.03269359999103,,,,,,,,,,,,,,,,,,,,,,,,,,,,,,,,,,,,,,,,,,,,,,,,,,,,,,,,,,,,,,sub128,percept,6,0,2024-08-09_12h45.52.951,ASRT_percept,2023.2.3,59.787086232469456,2024-08-09 12h58.29.802375 +0800,
,1,90,2,2,red,sequences/sub128_practice_sequence_00.csv,,,,,,,,,,,0,0,0,0,0,24,24,55,,,,,,,,,,,,,,,,,,,,,197.03838839998934,,,,,,,,,,,,,197.0332770999812,197.03838839998934,197.03838839998934,197.23286139999982,197.6900120000064,2,1,0.6434134000155609,None,197.6908107000054,197.69972959998995,197.69972959998995,197.89886899999692,198.1071082999988,198.10146919998806,198.10150990000693,198.1071082999988,198.8036790000042,198.794845299999,,,,,,,,,,,,,,,,,,,,,,,,,,,,,,,,,,,,,,,,,,,,,,,,,,,,,,,,,,,,,,sub128,percept,6,0,2024-08-09_12h45.52.951,ASRT_percept,2023.2.3,59.787086232469456,2024-08-09 12h58.29.802375 +0800,
,1,90,2,2,red,sequences/sub128_practice_sequence_00.csv,,,,,,,,,,,0,0,0,0,0,25,25,54,,,,,,,,,,,,,,,,,,,,,198.8036790000042,,,,,,,,,,,,,198.79599779998534,198.8036790000042,198.8036790000042,198.99666489998344,199.14050300000235,2,1,0.33293860001140274,None,199.14129060000414,199.1478203999868,199.1478203999868,199.3504166000057,199.5596888999862,199.55379040000844,199.55384989999584,199.5596888999862,200.25266989998636,200.2468574999948,,,,,,,,,,,,,,,,,,,,,,,,,,,,,,,,,,,,,,,,,,,,,,,,,,,,,,,,,,,,,,sub128,percept,6,0,2024-08-09_12h45.52.951,ASRT_percept,2023.2.3,59.787086232469456,2024-08-09 12h58.29.802375 +0800,
,3,270,0,4,red,sequences/sub128_practice_sequence_00.csv,,,,,,,,,,,0,0,0,0,0,26,26,22,,,,,,,,,,,,,,,,,,,,,200.25266989998636,,,,,,,,,,,,,200.2473927999963,200.25266989998636,200.25266989998636,200.4475359999924,200.90141409999342,1,0,0.6452916999987792,None,200.90204250000534,200.9171956999926,200.9171956999926,201.11445239998284,201.32482280000113,201.31765549999545,201.31771400000434,201.32482280000113,202.01972640000167,202.0114423999912,,,,,,,,,,,,,,,,,,,,,,,,,,,,,,,,,,,,,,,,,,,,,,,,,,,,,,,,,,,,,,sub128,percept,6,0,2024-08-09_12h45.52.951,ASRT_percept,2023.2.3,59.787086232469456,2024-08-09 12h58.29.802375 +0800,
,3,270,0,4,red,sequences/sub128_practice_sequence_00.csv,,,,,,,,,,,0,0,0,0,0,27,27,61,,,,,,,,,,,,,,,,,,,,,202.01972640000167,,,,,,,,,,,,,202.01228500000434,202.01972640000167,202.01972640000167,202.21170339998207,202.50663419999182,4,1,0.48384810000425205,None,202.5073812000046,202.51702010000008,202.51702010000008,202.72324339998886,202.92718549998244,202.92143889999716,202.92148419999285,202.92718549998244,203.62439749998157,203.61553039998398,,,,,,,,,,,,,,,,,,,,,,,,,,,,,,,,,,,,,,,,,,,,,,,,,,,,,,,,,,,,,,sub128,percept,6,0,2024-08-09_12h45.52.951,ASRT_percept,2023.2.3,59.787086232469456,2024-08-09 12h58.29.802375 +0800,
,1,90,2,2,red,sequences/sub128_practice_sequence_00.csv,,,,,,,,,,,0,0,0,0,0,28,28,10,,,,,,,,,,,,,,,,,,,,,203.62439749998157,,,,,,,,,,,,,203.6162556000054,203.62439749998157,203.62439749998157,203.815657500003,204.19519420000142,2,1,0.5654416999896057,None,204.19610899998224,204.2033681999892,204.2033681999892,204.4057055999874,204.6140366999898,204.60878609999781,204.60881929998868,204.6140366999898,205.3085044999898,205.30271980000543,,,,,,,,,,,,,,,,,,,,,,,,,,,,,,,,,,,,,,,,,,,,,,,,,,,,,,,,,,,,,,sub128,percept,6,0,2024-08-09_12h45.52.951,ASRT_percept,2023.2.3,59.787086232469456,2024-08-09 12h58.29.802375 +0800,
,1,90,2,2,red,sequences/sub128_practice_sequence_00.csv,,,,,,,,,,,0,0,0,0,0,29,29,17,,,,,,,,,,,,,,,,,,,,,205.3085044999898,,,,,,,,,,,,,205.30344289998175,205.3085044999898,205.3085044999898,205.50328209999134,205.8471617999894,2,1,0.5353166999993846,None,205.84807879998698,205.8598570000031,205.8598570000031,206.05872249999084,206.26800730000832,206.2643204999913,206.26435300000594,206.26800730000832,206.96408780000638,206.9560824999935,,,,,,,,,,,,,,,,,,,,,,,,,,,,,,,,,,,,,,,,,,,,,,,,,,,,,,,,,,,,,,sub128,percept,6,0,2024-08-09_12h45.52.951,ASRT_percept,2023.2.3,59.787086232469456,2024-08-09 12h58.29.802375 +0800,
,1,90,2,2,red,sequences/sub128_practice_sequence_00.csv,,,,,,,,,,,0,0,0,0,0,30,30,37,,,,,,,,,,,,,,,,,,,,,206.96408780000638,,,,,,,,,,,,,206.9568983000063,206.96408780000638,206.96408780000638,207.15655069999048,207.48674739999115,2,1,0.5187295000068843,None,207.4873901999963,207.4953503999859,207.4953503999859,207.69769139998243,207.90562720000162,207.9003939999966,207.9004452000081,207.90562720000162,208.59981509999488,208.59428250000929,,,,,,,,,,,,,,,,,,,,,,,,,,,,,,,,,,,,,,,,,,,,,,,,,,,,,,,,,,,,,,sub128,percept,6,0,2024-08-09_12h45.52.951,ASRT_percept,2023.2.3,59.787086232469456,2024-08-09 12h58.29.802375 +0800,
,3,270,0,4,red,sequences/sub128_practice_sequence_00.csv,,,,,,,,,,,0,0,0,0,0,31,31,5,,,,,,,,,,,,,,,,,,,,,208.59981509999488,,,,,,,,,,,,,208.59486089998973,208.59981509999488,208.59981509999488,208.79481990000932,209.23422379998374,4,1,0.6309404000057839,None,209.23489500000142,209.24161939998157,209.24161939998157,209.44733769999584,209.6556631999847,209.65046599999187,209.6505116999906,209.6556631999847,210.34977850000723,210.34428540000226,,,,,,,,,,,,,,,,,,,,,,,,,,,,,,,,,,,,,,,,,,,,,,,,,,,,,,,,,,,,,,sub128,percept,6,0,2024-08-09_12h45.52.951,ASRT_percept,2023.2.3,59.787086232469456,2024-08-09 12h58.29.802375 +0800,
,0,0,1,3,red,sequences/sub128_practice_sequence_00.csv,,,,,,,,,,,0,0,0,0,0,32,32,43,,,,,,,,,,,,,,,,,,,,,210.34977850000723,,,,,,,,,,,,,210.34481380000943,210.34977850000723,210.34977850000723,210.54437739998684,210.92229919999954,3,1,0.5662139000196476,None,210.92308049998246,210.92985109999427,210.92985109999427,211.1355412999983,211.34323299999232,211.3375168000057,211.3375578999985,211.34323299999232,212.0374343000003,212.03193920000922,,,,,,,,,,,,,,,,,,,,,,,,,,,,,,,,,,,,,,,,,,,,,,,,,,,,,,,,,,,,,,sub128,percept,6,0,2024-08-09_12h45.52.951,ASRT_percept,2023.2.3,59.787086232469456,2024-08-09 12h58.29.802375 +0800,
,3,270,0,4,red,sequences/sub128_practice_sequence_00.csv,,,,,,,,,,,0,0,0,0,0,33,33,75,,,,,,,,,,,,,,,,,,,,,212.0374343000003,,,,,,,,,,,,,212.0326192000066,212.0374343000003,212.0374343000003,212.23227499998757,212.4918786000053,1,0,0.45109360001515597,None,212.49252890000935,212.50129759998526,212.50129759998526,212.70454499998596,212.91274139998131,212.90690889998223,212.90695459998096,212.91274139998131,213.60655959998257,213.60101429998758,,,,,,,,,,,,,,,,,,,,,,,,,,,,,,,,,,,,,,,,,,,,,,,,,,,,,,,,,,,,,,sub128,percept,6,0,2024-08-09_12h45.52.951,ASRT_percept,2023.2.3,59.787086232469456,2024-08-09 12h58.29.802375 +0800,
,0,0,1,3,red,sequences/sub128_practice_sequence_00.csv,,,,,,,,,,,0,0,0,0,0,34,34,79,,,,,,,,,,,,,,,,,,,,,213.60655959998257,,,,,,,,,,,,,213.6016002999968,213.60655959998257,213.60655959998257,213.80138449999504,214.12337099999422,3,1,0.5117014000134077,None,214.12399190000724,214.12943899998209,214.12943899998209,214.3359266000043,214.54433060000883,214.53797549998853,214.5380104999931,214.54433060000883,215.2397404999938,215.23361890000524,,,,,,,,,,,,,,,,,,,,,,,,,,,,,,,,,,,,,,,,,,,,,,,,,,,,,,,,,,,,,,sub128,percept,6,0,2024-08-09_12h45.52.951,ASRT_percept,2023.2.3,59.787086232469456,2024-08-09 12h58.29.802375 +0800,
,3,270,0,4,red,sequences/sub128_practice_sequence_00.csv,,,,,,,,,,,0,0,0,0,0,35,35,74,,,,,,,,,,,,,,,,,,,,,215.2397404999938,,,,,,,,,,,,,215.2342556999938,215.2397404999938,215.2397404999938,215.43480230000569,215.84498009999515,4,1,0.6027055000013206,None,215.8456911999965,215.850729400001,215.850729400001,216.05833259999054,216.26692049999838,216.26141919998918,216.2614969999995,216.26692049999838,216.96233660000144,216.95525050000288,,,,,,,,,,,,,,,,,,,,,,,,,,,,,,,,,,,,,,,,,,,,,,,,,,,,,,,,,,,,,,sub128,percept,6,0,2024-08-09_12h45.52.951,ASRT_percept,2023.2.3,59.787086232469456,2024-08-09 12h58.29.802375 +0800,
,0,0,1,3,red,sequences/sub128_practice_sequence_00.csv,,,,,,,,,,,0,0,0,0,0,36,36,56,,,,,,,,,,,,,,,,,,,,,216.96233660000144,,,,,,,,,,,,,216.95598840000457,216.96233660000144,216.96233660000144,217.1563979999919,217.52503970000544,3,1,0.5564813999808393,None,217.525545099983,217.5302820999932,217.5302820999932,217.73859880000236,217.9468937999918,217.94191769999452,217.94196920000832,217.9468937999918,218.64989919998334,218.64162660000147,,,,,,,,,,,,,,,,,,,,,,,,,,,,,,,,,,,,,,,,,,,,,,,,,,,,,,,,,,,,,,sub128,percept,6,0,2024-08-09_12h45.52.951,ASRT_percept,2023.2.3,59.787086232469456,2024-08-09 12h58.29.802375 +0800,
,1,90,2,2,red,sequences/sub128_practice_sequence_00.csv,,,,,,,,,,,0,0,0,0,0,37,37,84,,,,,,,,,,,,,,,,,,,,,218.64989919998334,,,,,,,,,,,,,218.64235099998768,218.64989919998334,218.64989919998334,218.8428894999961,219.29814309999347,2,1,0.6451397000055294,None,219.29882110000472,219.30529260000912,219.30529260000912,219.5100307999819,219.71782990000793,219.71243039998808,219.71247440000298,219.71782990000793,220.41230189998168,220.40635109998402,,,,,,,,,,,,,,,,,,,,,,,,,,,,,,,,,,,,,,,,,,,,,,,,,,,,,,,,,,,,,,sub128,percept,6,0,2024-08-09_12h45.52.951,ASRT_percept,2023.2.3,59.787086232469456,2024-08-09 12h58.29.802375 +0800,
,2,180,3,1,red,sequences/sub128_practice_sequence_00.csv,,,,,,,,,,,0,0,0,0,0,38,38,68,,,,,,,,,,,,,,,,,,,,,220.41230189998168,,,,,,,,,,,,,220.40686459999415,220.41230189998168,220.41230189998168,220.60725559998536,220.94216879998567,1,1,0.5251871999935247,None,220.94284780000453,220.95122339998488,220.95122339998488,221.15529940000852,221.36329740000656,221.358024199988,221.35807009998825,221.36329740000656,222.0608896999911,222.0537514000025,,,,,,,,,,,,,,,,,,,,,,,,,,,,,,,,,,,,,,,,,,,,,,,,,,,,,,,,,,,,,,sub128,percept,6,0,2024-08-09_12h45.52.951,ASRT_percept,2023.2.3,59.787086232469456,2024-08-09 12h58.29.802375 +0800,
,0,0,1,3,red,sequences/sub128_practice_sequence_00.csv,,,,,,,,,,,0,0,0,0,0,39,39,30,,,,,,,,,,,,,,,,,,,,,222.0608896999911,,,,,,,,,,,,,222.05464539999957,222.0608896999911,222.0608896999911,222.25317859998904,222.6388653999893,3,1,0.5696797999844421,None,222.6398893999867,222.6458514999831,222.6458514999831,222.86370419999002,223.07137620000867,223.06677760000457,223.06682370000635,223.07137620000867,223.76743030000944,223.76046479999786,,,,,,,,,,,,,,,,,,,,,,,,,,,,,,,,,,,,,,,,,,,,,,,,,,,,,,,,,,,,,,sub128,percept,6,0,2024-08-09_12h45.52.951,ASRT_percept,2023.2.3,59.787086232469456,2024-08-09 12h58.29.802375 +0800,
,2,180,3,1,red,sequences/sub128_practice_sequence_00.csv,,,,,,,,,,,0,0,0,0,0,40,40,12,,,,,,,,,,,,,,,,,,,,,223.76743030000944,,,,,,,,,,,,,223.7610977999866,223.76743030000944,223.76743030000944,223.96065970000927,224.27679790000548,2,0,0.49999180002487265,None,224.27764590000152,224.2920582999941,224.2920582999941,224.49864020000678,224.69693169998936,224.6917994999967,224.6918427000055,224.69693169998936,225.39230639999732,225.3855826999934,,,,,,,,,,,,,,,,,,,,,,,,,,,,,,,,,,,,,,,,,,,,,,,,,,,,,,,,,,,,,,sub128,percept,6,0,2024-08-09_12h45.52.951,ASRT_percept,2023.2.3,59.787086232469456,2024-08-09 12h58.29.802375 +0800,
,2,180,3,1,red,sequences/sub128_practice_sequence_00.csv,,,,,,,,,,,0,0,0,0,0,41,41,71,,,,,,,,,,,,,,,,,,,,,225.39230639999732,,,,,,,,,,,,,225.3862017999927,225.39230639999732,225.39230639999732,225.58634310000343,225.89874780000537,1,1,0.5007955000037327,None,225.89900820000912,225.9054220999824,225.9054220999824,226.11400840000715,226.32176359998994,226.31651370000327,226.3165552999999,226.32176359998994,227.0164101999835,227.00986489999923,,,,,,,,,,,,,,,,,,,,,,,,,,,,,,,,,,,,,,,,,,,,,,,,,,,,,,,,,,,,,,sub128,percept,6,0,2024-08-09_12h45.52.951,ASRT_percept,2023.2.3,59.787086232469456,2024-08-09 12h58.29.802375 +0800,
,0,0,1,3,red,sequences/sub128_practice_sequence_00.csv,,,,,,,,,,,0,0,0,0,0,42,42,27,,,,,,,,,,,,,,,,,,,,,227.0164101999835,,,,,,,,,,,,,227.0100986000034,227.0164101999835,227.0164101999835,227.21114820000366,227.59503659998882,3,1,0.573135300015565,None,227.5956761999987,227.6024141999951,227.6024141999951,227.80839339998784,228.01621470000828,228.01107770000817,228.01112869998906,228.01621470000828,228.71313759998884,228.7057189999905,,,,,,,,,,,,,,,,,,,,,,,,,,,,,,,,,,,,,,,,,,,,,,,,,,,,,,,,,,,,,,sub128,percept,6,0,2024-08-09_12h45.52.951,ASRT_percept,2023.2.3,59.787086232469456,2024-08-09 12h58.29.802375 +0800,
,0,0,1,3,red,sequences/sub128_practice_sequence_00.csv,,,,,,,,,,,0,0,0,0,0,43,43,7,,,,,,,,,,,,,,,,,,,,,228.71313759998884,,,,,,,,,,,,,228.70635120000225,228.71313759998884,228.71313759998884,228.90563540000585,229.26944079998066,3,1,0.5498552999924868,None,229.27021289998083,229.27728559999377,229.27728559999377,229.48192869999912,229.68999990000157,229.68465859998832,229.6847093999968,229.68999990000157,230.38390039998922,230.37851209999644,,,,,,,,,,,,,,,,,,,,,,,,,,,,,,,,,,,,,,,,,,,,,,,,,,,,,,,,,,,,,,sub128,percept,6,0,2024-08-09_12h45.52.951,ASRT_percept,2023.2.3,59.787086232469456,2024-08-09 12h58.29.802375 +0800,
,0,0,1,3,red,sequences/sub128_practice_sequence_00.csv,,,,,,,,,,,0,0,0,0,0,44,44,78,,,,,,,,,,,,,,,,,,,,,230.38390039998922,,,,,,,,,,,,,230.37920569998096,230.38390039998922,230.38390039998922,230.57893309998326,230.85116279998329,3,1,0.4616785000253003,None,230.85180420000688,230.85963980000815,230.85963980000815,231.06496369998786,231.27362029999495,231.26705669998773,231.26709209999535,231.27362029999495,231.96985150000546,231.9623566000082,,,,,,,,,,,,,,,,,,,,,,,,,,,,,,,,,,,,,,,,,,,,,,,,,,,,,,,,,,,,,,sub128,percept,6,0,2024-08-09_12h45.52.951,ASRT_percept,2023.2.3,59.787086232469456,2024-08-09 12h58.29.802375 +0800,
,1,90,2,2,red,sequences/sub128_practice_sequence_00.csv,,,,,,,,,,,0,0,0,0,0,45,45,18,,,,,,,,,,,,,,,,,,,,,231.96985150000546,,,,,,,,,,,,,231.96308190000127,231.96985150000546,231.96985150000546,232.16216929999064,232.5323482999811,2,1,0.5560144000046421,None,232.53305040000123,232.5394057999947,232.5394057999947,232.74550240000826,232.9567104000016,232.94881040000473,232.94886830000905,232.9567104000016,233.64908229999128,233.6423814999871,,,,,,,,,,,,,,,,,,,,,,,,,,,,,,,,,,,,,,,,,,,,,,,,,,,,,,,,,,,,,,sub128,percept,6,0,2024-08-09_12h45.52.951,ASRT_percept,2023.2.3,59.787086232469456,2024-08-09 12h58.29.802375 +0800,
,3,270,0,4,red,sequences/sub128_practice_sequence_00.csv,,,,,,,,,,,0,0,0,0,0,46,46,29,,,,,,,,,,,,,,,,,,,,,233.64908229999128,,,,,,,,,,,,,233.64299399999436,233.64908229999128,233.64908229999128,233.84287150000455,234.23456270000315,4,1,0.5816624999861233,None,234.2352011000039,234.24211230000947,234.24211230000947,234.44704269999056,234.65497350000078,234.64943289998337,234.64947830000892,234.65497350000078,235.3503138999804,235.34350049999193,,,,,,,,,,,,,,,,,,,,,,,,,,,,,,,,,,,,,,,,,,,,,,,,,,,,,,,,,,,,,,sub128,percept,6,0,2024-08-09_12h45.52.951,ASRT_percept,2023.2.3,59.787086232469456,2024-08-09 12h58.29.802375 +0800,
,3,270,0,4,red,sequences/sub128_practice_sequence_00.csv,,,,,,,,,,,0,0,0,0,0,47,47,45,,,,,,,,,,,,,,,,,,,,,235.3503138999804,,,,,,,,,,,,,235.3441266999871,235.3503138999804,235.3503138999804,235.5446907999867,235.86543819998042,4,1,0.5101586999953724,None,235.86619509998127,235.87235950000468,235.87235950000468,236.0783955999941,236.2884006999957,236.28202089999104,236.28207210000255,236.2884006999957,236.98338829999557,236.9763524000009,,,,,,,,,,,,,,,,,,,,,,,,,,,,,,,,,,,,,,,,,,,,,,,,,,,,,,,,,,,,,,sub128,percept,6,0,2024-08-09_12h45.52.951,ASRT_percept,2023.2.3,59.787086232469456,2024-08-09 12h58.29.802375 +0800,
,3,270,0,4,red,sequences/sub128_practice_sequence_00.csv,,,,,,,,,,,0,0,0,0,0,48,48,60,,,,,,,,,,,,,,,,,,,,,236.98338829999557,,,,,,,,,,,,,236.97711829998298,236.98338829999557,236.98338829999557,237.17589109999244,237.46931280000717,4,1,0.4794155999843497,None,237.47002049998264,237.47600739999325,237.47600739999325,237.68279449999682,237.89083519999986,237.88549439999042,237.88553519998095,237.89083519999986,238.5851912999933,238.57955749999383,,,,,,,,,,,,,,,,,,,,,,,,,,,,,,,,,,,,,,,,,,,,,,,,,,,,,,,,,,,,,,sub128,percept,6,0,2024-08-09_12h45.52.951,ASRT_percept,2023.2.3,59.787086232469456,2024-08-09 12h58.29.802375 +0800,
,2,180,3,1,red,sequences/sub128_practice_sequence_00.csv,,,,,,,,,,,0,0,0,0,0,49,49,82,,,,,,,,,,,,,,,,,,,,,238.5851912999933,,,,,,,,,,,,,238.58025850000558,238.5851912999933,238.5851912999933,238.78014270000858,239.22072929999558,1,1,0.6319547999883071,None,239.22137729998212,239.2273203000077,239.2273203000077,239.43253210000694,239.64097109998693,239.63481669998146,239.63485129998298,239.64097109998693,240.3355930999969,240.3298036000051,,,,,,,,,,,,,,,,,,,,,,,,,,,,,,,,,,,,,,,,,,,,,,,,,,,,,,,,,,,,,,sub128,percept,6,0,2024-08-09_12h45.52.951,ASRT_percept,2023.2.3,59.787086232469456,2024-08-09 12h58.29.802375 +0800,
,3,270,0,4,red,sequences/sub128_practice_sequence_00.csv,,,,,,,,,,,0,0,0,0,0,50,50,35,,,,,,,,,,,,,,,,,,,,,240.3355930999969,,,,,,,,,,,,,240.33029660000466,240.3355930999969,240.3355930999969,240.5302029000013,240.93432629999006,4,1,0.5934082000167109,None,240.9347877999826,240.93959349999204,240.93959349999204,241.14810329998727,241.35631780000404,241.3505404999887,241.35057559999404,241.35631780000404,242.0502611999982,242.04476230000728,,,,,,,,,,,,,,,,,,,,,,,,,,,,,,,,,,,,,,,,,,,,,,,,,,,,,,,,,,,,,,sub128,percept,6,0,2024-08-09_12h45.52.951,ASRT_percept,2023.2.3,59.787086232469456,2024-08-09 12h58.29.802375 +0800,
,2,180,3,1,red,sequences/sub128_practice_sequence_00.csv,,,,,,,,,,,0,0,0,0,0,51,51,73,,,,,,,,,,,,,,,,,,,,,242.0502611999982,,,,,,,,,,,,,242.04521799998474,242.0502611999982,242.0502611999982,242.2452270000067,242.6711379000044,1,1,0.6158880000002682,None,242.6718830000027,242.677770099981,242.677770099981,242.8838867000013,243.0927476999932,243.08673320000526,243.08677339999122,243.0927476999932,243.78639779999503,243.78076339999097,,,,,,,,,,,,,,,,,,,,,,,,,,,,,,,,,,,,,,,,,,,,,,,,,,,,,,,,,,,,,,sub128,percept,6,0,2024-08-09_12h45.52.951,ASRT_percept,2023.2.3,59.787086232469456,2024-08-09 12h58.29.802375 +0800,
,0,0,1,3,red,sequences/sub128_practice_sequence_00.csv,,,,,,,,,,,0,0,0,0,0,52,52,57,,,,,,,,,,,,,,,,,,,,,243.78639779999503,,,,,,,,,,,,,243.78141239998513,243.78639779999503,243.78639779999503,243.98159089998808,244.42193859998952,3,1,0.6320655999879818,None,244.42250479999348,244.42785529998946,244.42785529998946,244.63379059999716,244.84229020000203,244.836561300006,244.83660229999805,244.84229020000203,245.53652659998625,245.53058109999984,,,,,,,,,,,,,,,,,,,,,,,,,,,,,,,,,,,,,,,,,,,,,,,,,,,,,,,,,,,,,,sub128,percept,6,0,2024-08-09_12h45.52.951,ASRT_percept,2023.2.3,59.787086232469456,2024-08-09 12h58.29.802375 +0800,
,1,90,2,2,red,sequences/sub128_practice_sequence_00.csv,,,,,,,,,,,0,0,0,0,0,53,53,83,,,,,,,,,,,,,,,,,,,,,245.53652659998625,,,,,,,,,,,,,245.53111039998475,245.53652659998625,245.53652659998625,245.73103659998742,246.13047689999803,2,1,0.590857600007439,None,246.13110900000902,246.13828129999456,246.13828129999456,246.34222930000396,246.55071209999733,246.54462299999432,246.5446641999879,246.55071209999733,247.2452122999821,247.2396532999992,,,,,,,,,,,,,,,,,,,,,,,,,,,,,,,,,,,,,,,,,,,,,,,,,,,,,,,,,,,,,,sub128,percept,6,0,2024-08-09_12h45.52.951,ASRT_percept,2023.2.3,59.787086232469456,2024-08-09 12h58.29.802375 +0800,
,1,90,2,2,red,sequences/sub128_practice_sequence_00.csv,,,,,,,,,,,0,0,0,0,0,54,54,6,,,,,,,,,,,,,,,,,,,,,247.2452122999821,,,,,,,,,,,,,247.24030689999927,247.2452122999821,247.2452122999821,247.4393085000047,247.88655540000764,2,1,0.6383987000153866,None,247.88719670000137,247.89246509998338,247.89246509998338,248.0993125999812,248.30731109998305,248.302182799991,248.3022243999876,248.30731109998305,249.00146679999307,248.9959462999832,,,,,,,,,,,,,,,,,,,,,,,,,,,,,,,,,,,,,,,,,,,,,,,,,,,,,,,,,,,,,,sub128,percept,6,0,2024-08-09_12h45.52.951,ASRT_percept,2023.2.3,59.787086232469456,2024-08-09 12h58.29.802375 +0800,
,2,180,3,1,red,sequences/sub128_practice_sequence_00.csv,,,,,,,,,,,0,0,0,0,0,55,55,40,,,,,,,,,,,,,,,,,,,,,249.00146679999307,,,,,,,,,,,,,248.99649739998858,249.00146679999307,249.00146679999307,249.19692469999427,249.56030009998358,1,1,0.5542195999878459,None,249.56088619999355,249.56776669999817,249.56776669999817,249.7725637999829,249.9810099999886,249.9752910999814,249.97533779998776,249.9810099999886,250.67666389999795,250.67008499999065,,,,,,,,,,,,,,,,,,,,,,,,,,,,,,,,,,,,,,,,,,,,,,,,,,,,,,,,,,,,,,sub128,percept,6,0,2024-08-09_12h45.52.951,ASRT_percept,2023.2.3,59.787086232469456,2024-08-09 12h58.29.802375 +0800,
,0,0,1,3,red,sequences/sub128_practice_sequence_00.csv,,,,,,,,,,,0,0,0,0,0,56,56,51,,,,,,,,,,,,,,,,,,,,,250.67666389999795,,,,,,,,,,,,,250.67065310000908,250.67666389999795,250.67666389999795,250.87016809999477,251.17119259998435,3,1,0.4912919999915175,None,251.17190699998173,251.1780124999932,251.1780124999932,251.38375799998175,251.59203369999886,251.5864200000069,251.58646210000734,251.59203369999886,252.2868857999856,252.2809258000052,,,,,,,,,,,,,,,,,,,,,,,,,,,,,,,,,,,,,,,,,,,,,,,,,,,,,,,,,,,,,,sub128,percept,6,0,2024-08-09_12h45.52.951,ASRT_percept,2023.2.3,59.787086232469456,2024-08-09 12h58.29.802375 +0800,
,1,90,2,2,red,sequences/sub128_practice_sequence_00.csv,,,,,,,,,,,0,0,0,0,0,57,57,70,,,,,,,,,,,,,,,,,,,,,252.2868857999856,,,,,,,,,,,,,252.28148790000705,252.2868857999856,252.2868857999856,252.48089609999442,253.0247460999817,2,1,0.734965799987549,None,253.02538989999448,253.03114410000853,253.03114410000853,253.23798609999358,253.4463923999865,253.4409250000026,253.44096569999238,253.4463923999865,254.14042700000573,254.13473220000742,,,,,,,,,,,,,,,,,,,,,,,,,,,,,,,,,,,,,,,,,,,,,,,,,,,,,,,,,,,,,,sub128,percept,6,0,2024-08-09_12h45.52.951,ASRT_percept,2023.2.3,59.787086232469456,2024-08-09 12h58.29.802375 +0800,
,3,270,0,4,red,sequences/sub128_practice_sequence_00.csv,,,,,,,,,,,0,0,0,0,0,58,58,52,,,,,,,,,,,,,,,,,,,,,254.14042700000573,,,,,,,,,,,,,254.1353553000081,254.14042700000573,254.14042700000573,254.33523339999374,254.69299489998957,4,1,0.549502100009704,None,254.69368810000014,254.70244419999653,254.70244419999653,254.9045123999822,255.11296490000677,255.108883399982,255.10891740000807,255.11296490000677,255.8071973999904,255.80158030000166,,,,,,,,,,,,,,,,,,,,,,,,,,,,,,,,,,,,,,,,,,,,,,,,,,,,,,,,,,,,,,sub128,percept,6,0,2024-08-09_12h45.52.951,ASRT_percept,2023.2.3,59.787086232469456,2024-08-09 12h58.29.802375 +0800,
,0,0,1,3,red,sequences/sub128_practice_sequence_00.csv,,,,,,,,,,,0,0,0,0,0,59,59,34,,,,,,,,,,,,,,,,,,,,,255.8071973999904,,,,,,,,,,,,,255.80224560000352,255.8071973999904,255.8071973999904,256.0021476999973,256.34556329998304,3,1,0.5349984999920707,None,256.3462135999871,256.3522348999977,256.3522348999977,256.5576677999925,256.7658076999942,256.7598441999871,256.75988480000524,256.7658076999942,257.4599496999872,257.45486759999767,,,,,,,,,,,,,,,,,,,,,,,,,,,,,,,,,,,,,,,,,,,,,,,,,,,,,,,,,,,,,,sub128,percept,6,0,2024-08-09_12h45.52.951,ASRT_percept,2023.2.3,59.787086232469456,2024-08-09 12h58.29.802375 +0800,
,2,180,3,1,red,sequences/sub128_practice_sequence_00.csv,,,,,,,,,,,0,0,0,0,0,60,60,50,,,,,,,,,,,,,,,,,,,,,257.4599496999872,,,,,,,,,,,,,257.4554428999836,257.4599496999872,257.4599496999872,257.65437259999453,258.0248112999834,1,1,0.5605676000122912,None,258.0253939999966,258.0324869999895,258.0324869999895,258.2377756999922,258.446226,258.44068090000656,258.44071870000334,258.446226,259.1418274999887,259.1347989999922,,,,,,,,,,,,,,,,,,,,,,,,,,,,,,,,,,,,,,,,,,,,,,,,,,,,,,,,,,,,,,sub128,percept,6,0,2024-08-09_12h45.52.951,ASRT_percept,2023.2.3,59.787086232469456,2024-08-09 12h58.29.802375 +0800,
,3,270,0,4,red,sequences/sub128_practice_sequence_00.csv,,,,,,,,,,,0,0,0,0,0,61,61,1,,,,,,,,,,,,,,,,,,,,,259.1418274999887,,,,,,,,,,,,,259.1354449999926,259.1418274999887,259.1418274999887,259.33562299999176,259.81051909999223,3,0,0.6637153999763541,None,259.8112226999947,259.81878460000735,259.81878460000735,260.0226030999911,260.23096559999976,260.22481719998177,260.2248520999856,260.23096559999976,260.92733449998195,260.9196142999863,,,,,,,,,,,,,,,,,,,,,,,,,,,,,,,,,,,,,,,,,,,,,,,,,,,,,,,,,,,,,,sub128,percept,6,0,2024-08-09_12h45.52.951,ASRT_percept,2023.2.3,59.787086232469456,2024-08-09 12h58.29.802375 +0800,
,1,90,2,2,red,sequences/sub128_practice_sequence_00.csv,,,,,,,,,,,0,0,0,0,0,62,62,8,,,,,,,,,,,,,,,,,,,,,260.92733449998195,,,,,,,,,,,,,260.9205331999983,260.92733449998195,260.92733449998195,261.11979659998906,261.55512259999523,2,1,0.6239551000180654,None,261.55590800000937,261.56448329999694,261.56448329999694,261.7656100000022,261.9739862999995,261.9681547000073,261.96818890000577,261.9739862999995,262.6694188999827,262.66295420000097,,,,,,,,,,,,,,,,,,,,,,,,,,,,,,,,,,,,,,,,,,,,,,,,,,,,,,,,,,,,,,sub128,percept,6,0,2024-08-09_12h45.52.951,ASRT_percept,2023.2.3,59.787086232469456,2024-08-09 12h58.29.802375 +0800,
,0,0,1,3,red,sequences/sub128_practice_sequence_00.csv,,,,,,,,,,,0,0,0,0,0,63,63,28,,,,,,,,,,,,,,,,,,,,,262.6694188999827,,,,,,,,,,,,,262.6638027000008,262.6694188999827,262.6694188999827,262.8627515999833,263.20437990000937,3,1,0.5275915999955032,None,263.20493410000927,263.2096809000068,263.2096809000068,263.41808689999743,263.6264976999955,263.62055419999524,263.62058260000776,263.6264976999955,264.320770499995,264.31495539998286,,,,,,,,,,,,,,,,,,,,,,,,,,,,,,,,,,,,,,,,,,,,,,,,,,,,,,,,,,,,,,sub128,percept,6,0,2024-08-09_12h45.52.951,ASRT_percept,2023.2.3,59.787086232469456,2024-08-09 12h58.29.802375 +0800,
,3,270,0,4,red,sequences/sub128_practice_sequence_00.csv,,,,,,,,,,,0,0,0,0,0,64,64,58,,,,,,,,,,,,,,,,,,,,,264.320770499995,,,,,,,,,,,,,264.315440699982,264.320770499995,264.320770499995,264.5158215999836,264.8451250999933,4,1,0.5191016000171658,None,264.8457778999873,264.85193539998727,264.85193539998727,265.0569733000011,265.2653472000093,265.2599535000045,265.25998949998757,265.2653472000093,265.95966520000366,265.9539822000079,,,,,,,,,,,,,,,,,,,,,,,,,,,,,,,,,,,,,,,,,,,,,,,,,,,,,,,,,,,,,,sub128,percept,6,0,2024-08-09_12h45.52.951,ASRT_percept,2023.2.3,59.787086232469456,2024-08-09 12h58.29.802375 +0800,
,1,90,2,2,red,sequences/sub128_practice_sequence_00.csv,,,,,,,,,,,0,0,0,0,0,65,65,62,,,,,,,,,,,,,,,,,,,,,265.95966520000366,,,,,,,,,,,,,265.9545039999939,265.95966520000366,265.95966520000366,266.15437259999453,266.84285260000615,2,1,0.8773817000037525,None,266.8438421000028,266.8533165999979,266.8533165999979,267.0498379000055,267.2584891000006,267.25286599999527,267.25290669998503,267.2584891000006,267.95419600000605,267.9470216000045,,,,,,,,,,,,,,,,,,,,,,,,,,,,,,,,,,,,,,,,,,,,,,,,,,,,,,,,,,,,,,sub128,percept,6,0,2024-08-09_12h45.52.951,ASRT_percept,2023.2.3,59.787086232469456,2024-08-09 12h58.29.802375 +0800,
,0,0,1,3,red,sequences/sub128_practice_sequence_00.csv,,,,,,,,,,,0,0,0,0,0,66,66,69,,,,,,,,,,,,,,,,,,,,,267.95419600000605,,,,,,,,,,,,,267.9478323000076,267.95419600000605,267.95419600000605,268.1475464999967,268.58993180000107,3,1,0.6317994999990333,None,268.5906815000053,268.59863439999754,268.59863439999754,268.8001005999977,269.0083532999852,269.0023611999932,269.00239929999225,269.0083532999852,269.7024933999928,269.69701269999496,,,,,,,,,,,,,,,,,,,,,,,,,,,,,,,,,,,,,,,,,,,,,,,,,,,,,,,,,,,,,,sub128,percept,6,0,2024-08-09_12h45.52.951,ASRT_percept,2023.2.3,59.787086232469456,2024-08-09 12h58.29.802375 +0800,
,3,270,0,4,red,sequences/sub128_practice_sequence_00.csv,,,,,,,,,,,0,0,0,0,0,67,67,38,,,,,,,,,,,,,,,,,,,,,269.7024933999928,,,,,,,,,,,,,269.6975855999917,269.7024933999928,269.7024933999928,269.89735539999674,270.37838740000734,4,1,0.6693504999857396,None,270.37899299999117,270.3850802999805,270.3850802999805,270.5915165999904,270.7997722,270.7941034999967,270.79413289998774,270.7997722,271.4946388999815,271.48894730000757,,,,,,,,,,,,,,,,,,,,,,,,,,,,,,,,,,,,,,,,,,,,,,,,,,,,,,,,,,,,,,sub128,percept,6,0,2024-08-09_12h45.52.951,ASRT_percept,2023.2.3,59.787086232469456,2024-08-09 12h58.29.802375 +0800,
,0,0,1,3,red,sequences/sub128_practice_sequence_00.csv,,,,,,,,,,,0,0,0,0,0,68,68,20,,,,,,,,,,,,,,,,,,,,,271.4946388999815,,,,,,,,,,,,,271.48977039998863,271.4946388999815,271.4946388999815,271.68907419999596,272.0726066000061,3,1,0.5713603000040166,None,272.07314540000516,272.0778621000063,272.0778621000063,272.28577399998903,272.49431149999145,272.4890283999848,272.4890698999807,272.49431149999145,273.1903793999809,273.1832318000088,,,,,,,,,,,,,,,,,,,,,,,,,,,,,,,,,,,,,,,,,,,,,,,,,,,,,,,,,,,,,,sub128,percept,6,0,2024-08-09_12h45.52.951,ASRT_percept,2023.2.3,59.787086232469456,2024-08-09 12h58.29.802375 +0800,
,3,270,0,4,red,sequences/sub128_practice_sequence_00.csv,,,,,,,,,,,0,0,0,0,0,69,69,26,,,,,,,,,,,,,,,,,,,,,273.1903793999809,,,,,,,,,,,,,273.18385729999864,273.1903793999809,273.1903793999809,273.3834938000073,273.93523780000396,4,1,0.7407324000087101,None,273.93593559999135,273.94267180000315,273.94267180000315,274.1472839000053,274.35539280000376,274.34982969998964,274.34987499998533,274.35539280000376,275.0499143000052,275.04404799998156,,,,,,,,,,,,,,,,,,,,,,,,,,,,,,,,,,,,,,,,,,,,,,,,,,,,,,,,,,,,,,sub128,percept,6,0,2024-08-09_12h45.52.951,ASRT_percept,2023.2.3,59.787086232469456,2024-08-09 12h58.29.802375 +0800,
