initial_random_seq_files,orientation_index,orientation_degrees,correct_answer_index,correct_answer_direction,arrow_color,practice_seq_files,learning_seq_files,percept_testing_seq_files,init_random_block.thisRepN,init_random_block.thisTrialN,init_random_block.thisN,init_random_block.thisIndex,init_random_trials.thisRepN,init_random_trials.thisTrialN,init_random_trials.thisN,init_random_trials.thisIndex,practice_blocks.thisRepN,practice_blocks.thisTrialN,practice_blocks.thisN,practice_blocks.thisIndex,practice_trials.thisRepN,practice_trials.thisTrialN,practice_trials.thisN,practice_trials.thisIndex,learning_trials.thisRepN,learning_trials.thisTrialN,learning_trials.thisN,learning_trials.thisIndex,learning_loop.thisRepN,learning_loop.thisTrialN,learning_loop.thisN,learning_loop.thisIndex,trials.thisRepN,trials.thisTrialN,trials.thisN,trials.thisIndex,percept_testing_trials.thisRepN,percept_testing_trials.thisTrialN,percept_testing_trials.thisN,percept_testing_trials.thisIndex,percept_testing_loop.thisRepN,percept_testing_loop.thisTrialN,percept_testing_loop.thisN,percept_testing_loop.thisIndex,thisRow.t,notes,welcomescreen.started,spaceship.started,welcometext.started,welcome_end.started,welcomescreen.stopped,welcome_end.keys,welcome_end.rt,welcome_end.duration,pre_section.started,fixation_init.started,pre_section.stopped,trial.started,arrowhead.started,key_resp.started,arrowhead.stopped,trial.stopped,key_resp.keys,key_resp.corr,key_resp.rt,key_resp.duration,fixation_feedback.started,cross.started,feedback_text.started,cross.stopped,feedback_text.stopped,fixation_feedback.stopped,RSI.started,text_2.started,text_2.stopped,RSI.stopped,post_section.started,feedback_post_section.started,key_resp_4.started,feedback_post_section.stopped,post_section.stopped,key_resp_4.keys,key_resp_4.rt,key_resp_4.duration,pratice_instruction.started,spaceship_rotated.started,rotation_instruction.started,key_resp_2.started,pratice_instruction.stopped,key_resp_2.keys,key_resp_2.rt,key_resp_2.duration,fixation_init.stopped,learning_instruction.started,spaceship_rotated01.started,rotation_instruction01.started,key_resp_02.started,learning_instruction.stopped,key_resp_02.keys,key_resp_02.rt,key_resp_02.duration,seqreport_instruction.started,seqreport_instruction_text.started,seqreport_instruction_key.started,seqreport_instruction.stopped,seqreport_instruction_key.keys,seqreport_instruction_key.rt,seqreport_instruction_key.duration,seqreport.started,seq_report_key.started,seqreport.stopped,seq_report_key.keys,seq_report_key.rt,seq_report_key.duration,seqarrow.started,arrow_report.started,seqarrow.stopped,arrow_report.stopped,key_resp.stopped,percept_testing_instruction.started,spaceship4.started,key_resp_5.started,percept_testing_instruction_text.started,percept_testing_instruction.stopped,key_resp_5.keys,key_resp_5.rt,key_resp_5.duration,fixation.started,cross_2.started,cross_2.stopped,fixation.stopped,thankyouscreen.started,text.started,key_resp_6.started,thankyouscreen.stopped,key_resp_6.keys,key_resp_6.rt,key_resp_6.duration,participant,learning_type,seqID,debug,date,expName,psychopyVersion,frameRate,expStart,
,,,,,,,,,,,,,,,,,,,,,,,,,,,,,,,,,,,,,,,,,,,,,,,0.013371599998208694,0.02222859999164939,0.02222859999164939,0.02222859999164939,18.483990799999447,space,18.459826999998768,None,,,,,,,,,,,,,,,,,,,,,,,,,,,,,,,,,,,,,,,,,,,,,,,,,,,,,,,,,,,,,,,,,,,,,,,,,,,,,,,,,,,,,sub102,percept,1,0,2024-08-07_10h04.40.264,ASRT_percept,2023.2.3,143.29562749524547,2024-08-07 10h05.03.085331 +0800,
sequences/sub102_initial_random.csv,0,0,0,4,red,,,,0,0,0,0,0,0,0,0,,,,,,,,,,,,,,,,,,,,,,,,,,,,,19.520655899992562,,,,,,,,,,18.505121700000018,18.50876789999893,19.489130599991768,19.517262199995457,19.520655899992562,19.520655899992562,19.725080599993817,20.25503949999984,4,1,0.7313001000002259,None,20.256162999998196,20.265260899992427,20.265260899992427,20.467861700002686,20.67653739999514,20.671339299995452,20.671373699995456,20.67653739999514,21.37942889999249,21.37190469999041,,,,,,,,,,,,,,,,,,,,,,,,,,,,,,,,,,,,,,,,,,,,,,,,,,,,,,,,,,,,,,,sub102,percept,1,0,2024-08-07_10h04.40.264,ASRT_percept,2023.2.3,143.29562749524547,2024-08-07 10h05.03.085331 +0800,
sequences/sub102_initial_random.csv,1,90,1,3,red,,,,0,0,0,0,0,1,1,1,,,,,,,,,,,,,,,,,,,,,,,,,,,,,21.37942889999249,,,,,,,,,,,,,21.372933799997554,21.37942889999249,21.37942889999249,21.579284499995993,21.840346600001794,3,1,0.453225699995528,None,21.84092019998934,21.846581399993738,21.846581399993738,22.051441599993268,22.259599199998775,22.25394640000013,22.253984399998444,22.259599199998775,,22.955031899997266,,,,,,,,,,,,,,,,,,,,,,,,,,,,,,,,,,,,,,,,,,,,,,,,,,,,,,,,,,,,,,,sub102,percept,1,0,2024-08-07_10h04.40.264,ASRT_percept,2023.2.3,143.29562749524547,2024-08-07 10h05.03.085331 +0800,
sequences/sub102_initial_random.csv,2,180,2,2,red,,,,0,0,0,0,0,2,2,2,,,,,,,,,,,,,,,,,,,,,,,,,,,,,22.96385059999011,,,,,,,,,,,,,22.956037899988587,22.96385059999011,22.96385059999011,23.16250439999567,23.455534299995634,2,1,0.48782629999914207,None,23.456189499993343,23.460901500002365,23.460901500002365,23.6693008000002,23.87749059998896,23.872273499990115,23.87230940000154,23.87749059998896,,24.57259019999765,,,,,,,,,,,,,,,,,,,,,,,,,,,,,,,,,,,,,,,,,,,,,,,,,,,,,,,,,,,,,,,sub102,percept,1,0,2024-08-07_10h04.40.264,ASRT_percept,2023.2.3,143.29562749524547,2024-08-07 10h05.03.085331 +0800,
sequences/sub102_initial_random.csv,3,270,3,1,red,,,,0,0,0,0,0,3,3,3,,,,,,,,,,,,,,,,,,,,,,,,,,,,,24.578960599988932,,,,,,,,,,,,,24.573222199993324,24.578960599988932,24.578960599988932,24.780640199998743,24.97820949999732,1,1,0.3963042000104906,None,24.979412299988326,24.986704199996893,24.986704199996893,25.19007139999303,25.398418400000082,25.392649000001256,25.392687300001853,25.398418400000082,,26.093361399995047,,,,,,,,,,,,,,,,,,,,,,,,,,,,,,,,,,,,,,,,,,,,,,,,,,,,,,,,,,,,,,,sub102,percept,1,0,2024-08-07_10h04.40.264,ASRT_percept,2023.2.3,143.29562749524547,2024-08-07 10h05.03.085331 +0800,
sequences/sub102_initial_random.csv,1,90,1,3,red,,,,0,0,0,0,0,4,4,4,,,,,,,,,,,,,,,,,,,,,,,,,,,,,26.100232400000095,,,,,,,,,,,,,26.09395989999757,26.100232400000095,26.100232400000095,26.30172479999601,26.478796299998066,3,1,0.37602650000189897,None,26.4793909,26.484986099996604,26.484986099996604,26.68993259999843,26.898480099989683,26.892874299999676,26.89291080000112,26.898480099989683,,27.593267199990805,,,,,,,,,,,,,,,,,,,,,,,,,,,,,,,,,,,,,,,,,,,,,,,,,,,,,,,,,,,,,,,sub102,percept,1,0,2024-08-07_10h04.40.264,ASRT_percept,2023.2.3,143.29562749524547,2024-08-07 10h05.03.085331 +0800,
sequences/sub102_initial_random.csv,3,270,3,1,red,,,,0,0,0,0,0,5,5,5,,,,,,,,,,,,,,,,,,,,,,,,,,,,,27.599928600000567,,,,,,,,,,,,,27.594278999997186,27.599928600000567,27.599928600000567,27.801111699998728,27.97759059999953,1,1,0.3752804000105243,None,27.97810419999587,27.98512359999586,27.98512359999586,28.190019899993786,28.398265299998457,28.392750699989847,28.39278429999831,28.398265299998457,,29.093553899991093,,,,,,,,,,,,,,,,,,,,,,,,,,,,,,,,,,,,,,,,,,,,,,,,,,,,,,,,,,,,,,,sub102,percept,1,0,2024-08-07_10h04.40.264,ASRT_percept,2023.2.3,143.29562749524547,2024-08-07 10h05.03.085331 +0800,
sequences/sub102_initial_random.csv,0,0,0,4,red,,,,0,0,0,0,0,6,6,6,,,,,,,,,,,,,,,,,,,,,,,,,,,,,29.102309199995943,,,,,,,,,,,,,29.094269900000654,29.102309199995943,29.102309199995943,29.301285599998664,29.531697400001576,4,1,0.4224268999969354,None,29.53238199999032,29.5375178999966,29.5375178999966,29.745445499997004,29.95386769999459,29.947988799991435,29.948021999996854,29.95386769999459,,30.648495899993577,,,,,,,,,,,,,,,,,,,,,,,,,,,,,,,,,,,,,,,,,,,,,,,,,,,,,,,,,,,,,,,sub102,percept,1,0,2024-08-07_10h04.40.264,ASRT_percept,2023.2.3,143.29562749524547,2024-08-07 10h05.03.085331 +0800,
sequences/sub102_initial_random.csv,2,180,2,2,red,,,,0,0,0,0,0,7,7,7,,,,,,,,,,,,,,,,,,,,,,,,,,,,,30.655254899989814,,,,,,,,,,,,,30.649394599997322,30.655254899989814,30.655254899989814,30.856959700002335,31.094775599995046,2,1,0.43372180000005756,None,31.09539099999529,31.100264299995615,31.100264299995615,31.307997600000817,31.515816499988432,31.509604399994714,31.509624500002246,31.515816499988432,,32.21111489999748,,,,,,,,,,,,,,,,,,,,,,,,,,,,,,,,,,,,,,,,,,,,,,,,,,,,,,,,,,,,,,,sub102,percept,1,0,2024-08-07_10h04.40.264,ASRT_percept,2023.2.3,143.29562749524547,2024-08-07 10h05.03.085331 +0800,
sequences/sub102_initial_random.csv,3,270,3,1,red,,,,0,0,0,0,0,8,8,8,,,,,,,,,,,,,,,,,,,,,,,,,,,,,32.21769809999387,,,,,,,,,,,,,32.211667199997464,32.21769809999387,32.21769809999387,32.41919039998902,32.55297889999929,1,1,0.328307700008736,None,32.5535763999942,32.56046379999316,32.56046379999316,32.76658809999935,32.97502810000151,32.968979500001296,32.96902129999944,32.97502810000151,,33.66959289999795,,,,,,,,,,,,,,,,,,,,,,,,,,,,,,,,,,,,,,,,,,,,,,,,,,,,,,,,,,,,,,,sub102,percept,1,0,2024-08-07_10h04.40.264,ASRT_percept,2023.2.3,143.29562749524547,2024-08-07 10h05.03.085331 +0800,
sequences/sub102_initial_random.csv,0,0,0,4,red,,,,0,0,0,0,0,9,9,9,,,,,,,,,,,,,,,,,,,,,,,,,,,,,33.67616819999239,,,,,,,,,,,,,33.67027639999287,33.67616819999239,33.67616819999239,33.87760490000073,34.018470199996955,4,1,0.33852249999472406,None,34.0190864999895,34.025609799995436,34.025609799995436,34.231770899990806,34.43978159999824,34.43406439998944,34.43410299999232,34.43978159999824,,35.13473229999363,,,,,,,,,,,,,,,,,,,,,,,,,,,,,,,,,,,,,,,,,,,,,,,,,,,,,,,,,,,,,,,sub102,percept,1,0,2024-08-07_10h04.40.264,ASRT_percept,2023.2.3,143.29562749524547,2024-08-07 10h05.03.085331 +0800,
sequences/sub102_initial_random.csv,3,270,3,1,red,,,,0,0,0,0,0,10,10,10,,,,,,,,,,,,,,,,,,,,,,,,,,,,,35.14111589999811,,,,,,,,,,,,,35.13535250000132,35.14111589999811,35.14111589999811,35.34263539999665,35.497742599996855,1,1,0.35251029999926686,None,35.498336399992695,35.503495999990264,35.503495999990264,35.710843799999566,35.919125599990366,35.91355269998894,35.91359939999529,35.919125599990366,,36.613907299994025,,,,,,,,,,,,,,,,,,,,,,,,,,,,,,,,,,,,,,,,,,,,,,,,,,,,,,,,,,,,,,,sub102,percept,1,0,2024-08-07_10h04.40.264,ASRT_percept,2023.2.3,143.29562749524547,2024-08-07 10h05.03.085331 +0800,
sequences/sub102_initial_random.csv,2,180,2,2,red,,,,0,0,0,0,0,11,11,11,,,,,,,,,,,,,,,,,,,,,,,,,,,,,36.62159039999824,,,,,,,,,,,,,36.6145600000018,36.62159039999824,36.62159039999824,36.82187139999587,37.1437375999958,2,1,0.5163586999988183,None,37.14432649999799,37.15132550000271,37.15132550000271,37.356651299996884,37.564930099993944,37.55908729998919,37.55912619999435,37.564930099993944,,38.2600853999902,,,,,,,,,,,,,,,,,,,,,,,,,,,,,,,,,,,,,,,,,,,,,,,,,,,,,,,,,,,,,,,sub102,percept,1,0,2024-08-07_10h04.40.264,ASRT_percept,2023.2.3,143.29562749524547,2024-08-07 10h05.03.085331 +0800,
sequences/sub102_initial_random.csv,3,270,3,1,red,,,,0,0,0,0,0,12,12,12,,,,,,,,,,,,,,,,,,,,,,,,,,,,,38.267684599995846,,,,,,,,,,,,,38.26084809999156,38.267684599995846,38.267684599995846,38.46794119999686,38.60212939999474,1,1,0.3297230000025593,None,38.6028753999999,38.60929849999957,38.60929849999957,38.81467789999442,39.02293729998928,39.01754109999456,39.01757889999135,39.02293729998928,,39.71803699999873,,,,,,,,,,,,,,,,,,,,,,,,,,,,,,,,,,,,,,,,,,,,,,,,,,,,,,,,,,,,,,,sub102,percept,1,0,2024-08-07_10h04.40.264,ASRT_percept,2023.2.3,143.29562749524547,2024-08-07 10h05.03.085331 +0800,
sequences/sub102_initial_random.csv,2,180,2,2,red,,,,0,0,0,0,0,13,13,13,,,,,,,,,,,,,,,,,,,,,,,,,,,,,39.725959499992314,,,,,,,,,,,,,39.718679300000076,39.725959499992314,39.725959499992314,39.92621799999324,40.33763489998819,2,1,0.6046857999899657,None,40.33831779999309,40.34442159999162,40.34442159999162,40.55099019999034,40.75916439999128,40.75317699999141,40.753211499992176,40.75916439999128,,41.45399280000129,,,,,,,,,,,,,,,,,,,,,,,,,,,,,,,,,,,,,,,,,,,,,,,,,,,,,,,,,,,,,,,sub102,percept,1,0,2024-08-07_10h04.40.264,ASRT_percept,2023.2.3,143.29562749524547,2024-08-07 10h05.03.085331 +0800,
sequences/sub102_initial_random.csv,1,90,1,3,red,,,,0,0,0,0,0,14,14,14,,,,,,,,,,,,,,,,,,,,,,,,,,,,,41.46158619999187,,,,,,,,,,,,,41.45476899998903,41.46158619999187,41.46158619999187,41.66205829998944,41.90730710000207,3,1,0.44153010001173243,None,41.90792309999233,41.91343749999942,41.91343749999942,42.12046759999066,42.32859920000192,42.322834499995224,42.32287550000183,42.32859920000192,,43.02326409998932,,,,,,,,,,,,,,,,,,,,,,,,,,,,,,,,,,,,,,,,,,,,,,,,,,,,,,,,,,,,,,,sub102,percept,1,0,2024-08-07_10h04.40.264,ASRT_percept,2023.2.3,143.29562749524547,2024-08-07 10h05.03.085331 +0800,
sequences/sub102_initial_random.csv,3,270,3,1,red,,,,0,0,0,0,0,15,15,15,,,,,,,,,,,,,,,,,,,,,,,,,,,,,43.02995050000027,,,,,,,,,,,,,43.02402709999296,43.02995050000027,43.02995050000027,43.23140930000227,43.428515999999945,1,1,0.3939345999970101,None,43.42936270000064,43.437884400002076,43.437884400002076,43.6415197999886,43.8501408000011,43.84472039999673,43.84475859999657,43.8501408000011,44.55083680000098,44.54518449999159,,,,,,,,,,,,,,,,,,,,,,,,,,,,,,,,,,,,,,,,,,,,,,,,,,,,,,,,,,,,,,,sub102,percept,1,0,2024-08-07_10h04.40.264,ASRT_percept,2023.2.3,143.29562749524547,2024-08-07 10h05.03.085331 +0800,
sequences/sub102_initial_random.csv,1,90,1,3,red,,,,0,0,0,0,0,16,16,16,,,,,,,,,,,,,,,,,,,,,,,,,,,,,44.55083680000098,,,,,,,,,,,,,44.54583289999573,44.55083680000098,44.55083680000098,44.75228989998868,44.90730189999158,3,1,0.3501665999938268,None,44.907984099991154,44.91336579999188,44.91336579999188,45.12054289999651,45.32871549999982,45.322982899990166,45.3230254999944,45.32871549999982,,46.023604799993336,,,,,,,,,,,,,,,,,,,,,,,,,,,,,,,,,,,,,,,,,,,,,,,,,,,,,,,,,,,,,,,sub102,percept,1,0,2024-08-07_10h04.40.264,ASRT_percept,2023.2.3,143.29562749524547,2024-08-07 10h05.03.085331 +0800,
sequences/sub102_initial_random.csv,2,180,2,2,red,,,,0,0,0,0,0,17,17,17,,,,,,,,,,,,,,,,,,,,,,,,,,,,,46.03179090000049,,,,,,,,,,,,,46.02427939999325,46.03179090000049,46.03179090000049,46.23171389999334,46.44911879999563,2,1,0.41409140000178013,None,46.44971819999046,46.45643449999625,46.45643449999625,46.662195899989456,46.87014179999824,46.86465869999665,46.864707000000635,46.87014179999824,47.57184330000018,47.56512549999752,,,,,,,,,,,,,,,,,,,,,,,,,,,,,,,,,,,,,,,,,,,,,,,,,,,,,,,,,,,,,,,sub102,percept,1,0,2024-08-07_10h04.40.264,ASRT_percept,2023.2.3,143.29562749524547,2024-08-07 10h05.03.085331 +0800,
sequences/sub102_initial_random.csv,3,270,3,1,red,,,,0,0,0,0,0,18,18,18,,,,,,,,,,,,,,,,,,,,,,,,,,,,,47.57184330000018,,,,,,,,,,,,,47.56553629999689,47.57184330000018,47.57184330000018,47.77367619999859,47.90055089999805,1,1,0.3224673999939114,None,47.90165600000182,47.90953710000031,47.90953710000031,48.113126899988856,48.321380399997,48.315784799997346,48.315864099989994,48.321380399997,,49.016286599988234,,,,,,,,,,,,,,,,,,,,,,,,,,,,,,,,,,,,,,,,,,,,,,,,,,,,,,,,,,,,,,,sub102,percept,1,0,2024-08-07_10h04.40.264,ASRT_percept,2023.2.3,143.29562749524547,2024-08-07 10h05.03.085331 +0800,
sequences/sub102_initial_random.csv,1,90,1,3,red,,,,0,0,0,0,0,19,19,19,,,,,,,,,,,,,,,,,,,,,,,,,,,,,49.02378360000148,,,,,,,,,,,,,49.017032299991115,49.02378360000148,49.02378360000148,49.224368199997116,49.392357699995046,3,1,0.36135920000378974,None,49.392913599993335,49.39761129999533,49.39761129999533,49.60694669999066,49.814342300000135,49.80855229998997,49.80859029998828,49.814342300000135,,50.50917549998849,,,,,,,,,,,,,,,,,,,,,,,,,,,,,,,,,,,,,,,,,,,,,,,,,,,,,,,,,,,,,,,sub102,percept,1,0,2024-08-07_10h04.40.264,ASRT_percept,2023.2.3,143.29562749524547,2024-08-07 10h05.03.085331 +0800,
sequences/sub102_initial_random.csv,2,180,2,2,red,,,,0,0,0,0,0,20,20,20,,,,,,,,,,,,,,,,,,,,,,,,,,,,,50.51601339998888,,,,,,,,,,,,,50.5096870999987,50.51601339998888,50.51601339998888,50.717749699993874,50.93638810000266,2,1,0.4132798999926308,None,50.93731789999583,50.944980899992515,50.944980899992515,51.14802749999217,51.356453499989584,51.350753399994574,51.35079529999348,51.356453499989584,,52.051151599996956,,,,,,,,,,,,,,,,,,,,,,,,,,,,,,,,,,,,,,,,,,,,,,,,,,,,,,,,,,,,,,,sub102,percept,1,0,2024-08-07_10h04.40.264,ASRT_percept,2023.2.3,143.29562749524547,2024-08-07 10h05.03.085331 +0800,
sequences/sub102_initial_random.csv,2,180,2,2,red,,,,0,0,0,0,0,21,21,21,,,,,,,,,,,,,,,,,,,,,,,,,,,,,52.05830769999011,,,,,,,,,,,,,52.051929099994595,52.05830769999011,52.05830769999011,52.25912360000075,52.46166669999366,2,1,0.39608720000251196,None,52.46232589999272,52.46792489998916,52.46792489998916,52.675639299995964,52.88496260000102,52.8794338000007,52.87949310000113,52.88496260000102,53.58630429999903,53.579372899999726,,,,,,,,,,,,,,,,,,,,,,,,,,,,,,,,,,,,,,,,,,,,,,,,,,,,,,,,,,,,,,,sub102,percept,1,0,2024-08-07_10h04.40.264,ASRT_percept,2023.2.3,143.29562749524547,2024-08-07 10h05.03.085331 +0800,
sequences/sub102_initial_random.csv,0,0,0,4,red,,,,0,0,0,0,0,22,22,22,,,,,,,,,,,,,,,,,,,,,,,,,,,,,53.58630429999903,,,,,,,,,,,,,53.580032600002596,53.58630429999903,53.58630429999903,53.787046899989946,53.96905469999183,4,1,0.37883570000121836,None,53.969711799989454,53.9766413999896,53.9766413999896,54.18303849999211,54.39084899998852,54.38472170000023,54.38475669999025,54.39084899998852,,55.08592299999145,,,,,,,,,,,,,,,,,,,,,,,,,,,,,,,,,,,,,,,,,,,,,,,,,,,,,,,,,,,,,,,sub102,percept,1,0,2024-08-07_10h04.40.264,ASRT_percept,2023.2.3,143.29562749524547,2024-08-07 10h05.03.085331 +0800,
sequences/sub102_initial_random.csv,1,90,1,3,red,,,,0,0,0,0,0,23,23,23,,,,,,,,,,,,,,,,,,,,,,,,,,,,,55.094001999998,,,,,,,,,,,,,55.08663700000034,55.094001999998,55.094001999998,55.293785399990156,55.46232599999348,3,1,0.3613812000112375,None,55.46304799999052,55.47210499999346,55.47210499999346,55.67570100000012,55.88389610000013,55.87832309999794,55.878375100000994,55.88389610000013,,56.57849489999353,,,,,,,,,,,,,,,,,,,,,,,,,,,,,,,,,,,,,,,,,,,,,,,,,,,,,,,,,,,,,,,sub102,percept,1,0,2024-08-07_10h04.40.264,ASRT_percept,2023.2.3,143.29562749524547,2024-08-07 10h05.03.085331 +0800,
sequences/sub102_initial_random.csv,1,90,1,3,red,,,,0,0,0,0,0,24,24,24,,,,,,,,,,,,,,,,,,,,,,,,,,,,,56.58535919999122,,,,,,,,,,,,,56.57909829998971,56.58535919999122,56.58535919999122,56.78665499998897,56.956051000001025,3,1,0.3635416000033729,None,56.95660829999542,56.962235799990594,56.962235799990594,57.1687804999965,57.37746829999378,57.3711639999965,57.37119739998889,57.37746829999378,,58.07192190000205,,,,,,,,,,,,,,,,,,,,,,,,,,,,,,,,,,,,,,,,,,,,,,,,,,,,,,,,,,,,,,,sub102,percept,1,0,2024-08-07_10h04.40.264,ASRT_percept,2023.2.3,143.29562749524547,2024-08-07 10h05.03.085331 +0800,
sequences/sub102_initial_random.csv,0,0,0,4,red,,,,0,0,0,0,0,25,25,25,,,,,,,,,,,,,,,,,,,,,,,,,,,,,58.07921260000148,,,,,,,,,,,,,58.07257109999773,58.07921260000148,58.07921260000148,58.280185999989044,58.53317869998864,4,1,0.45094710000557825,None,58.53380629999447,58.53928269998869,58.53928269998869,58.74523339999723,58.95325199999206,58.94832789999782,58.948370599988266,58.95325199999206,59.65460159999202,59.6484832999995,,,,,,,,,,,,,,,,,,,,,,,,,,,,,,,,,,,,,,,,,,,,,,,,,,,,,,,,,,,,,,,sub102,percept,1,0,2024-08-07_10h04.40.264,ASRT_percept,2023.2.3,143.29562749524547,2024-08-07 10h05.03.085331 +0800,
sequences/sub102_initial_random.csv,3,270,3,1,red,,,,0,0,0,0,0,26,26,26,,,,,,,,,,,,,,,,,,,,,,,,,,,,,59.65460159999202,,,,,,,,,,,,,59.64898749999702,59.65460159999202,59.65460159999202,59.85635979998915,60.04614959999162,3,0,0.38423119999060873,None,60.046737399999984,60.06169019998924,60.06169019998924,60.258783199999016,60.46711179999693,60.46104290000221,60.46110739999858,60.46711179999693,,61.16159649999463,,,,,,,,,,,,,,,,,,,,,,,,,,,,,,,,,,,,,,,,,,,,,,,,,,,,,,,,,,,,,,,sub102,percept,1,0,2024-08-07_10h04.40.264,ASRT_percept,2023.2.3,143.29562749524547,2024-08-07 10h05.03.085331 +0800,
sequences/sub102_initial_random.csv,1,90,1,3,red,,,,0,0,0,0,0,27,27,27,,,,,,,,,,,,,,,,,,,,,,,,,,,,,61.16864560000249,,,,,,,,,,,,,61.16229849999945,61.16864560000249,61.16864560000249,61.3701613000012,61.51237569999648,3,1,0.3408503999962704,None,61.512959999992745,61.52067779999925,61.52067779999925,61.72443209998892,61.93226999999024,61.92689989999053,61.9269326999929,61.93226999999024,,62.62712720000127,,,,,,,,,,,,,,,,,,,,,,,,,,,,,,,,,,,,,,,,,,,,,,,,,,,,,,,,,,,,,,,sub102,percept,1,0,2024-08-07_10h04.40.264,ASRT_percept,2023.2.3,143.29562749524547,2024-08-07 10h05.03.085331 +0800,
sequences/sub102_initial_random.csv,2,180,2,2,red,,,,0,0,0,0,0,28,28,28,,,,,,,,,,,,,,,,,,,,,,,,,,,,,62.6336702999979,,,,,,,,,,,,,62.627710299988394,62.6336702999979,62.6336702999979,62.83579139999347,63.02468069999304,2,1,0.38694440000108443,None,63.02527499999269,63.0315455999953,63.0315455999953,63.23802579999028,63.44611169998825,63.440586099997745,63.440617999993265,63.44611169998825,,64.14097459999903,,,,,,,,,,,,,,,,,,,,,,,,,,,,,,,,,,,,,,,,,,,,,,,,,,,,,,,,,,,,,,,sub102,percept,1,0,2024-08-07_10h04.40.264,ASRT_percept,2023.2.3,143.29562749524547,2024-08-07 10h05.03.085331 +0800,
sequences/sub102_initial_random.csv,2,180,2,2,red,,,,0,0,0,0,0,29,29,29,,,,,,,,,,,,,,,,,,,,,,,,,,,,,64.14778020000085,,,,,,,,,,,,,64.14174579999235,64.14778020000085,64.14778020000085,64.34950799999933,64.61565680000058,2,1,0.46030859999882523,None,64.61655890000111,64.6253338999959,64.6253338999959,64.82786689999921,65.03659599999082,65.03073790000053,65.03077369999664,65.03659599999082,,65.73099679998995,,,,,,,,,,,,,,,,,,,,,,,,,,,,,,,,,,,,,,,,,,,,,,,,,,,,,,,,,,,,,,,sub102,percept,1,0,2024-08-07_10h04.40.264,ASRT_percept,2023.2.3,143.29562749524547,2024-08-07 10h05.03.085331 +0800,
sequences/sub102_initial_random.csv,0,0,0,4,red,,,,0,0,0,0,0,30,30,30,,,,,,,,,,,,,,,,,,,,,,,,,,,,,65.73785679999855,,,,,,,,,,,,,65.73174989999097,65.73785679999855,65.73785679999855,65.93988739998895,66.13542679999955,4,1,0.3925903999916045,None,66.1360391999915,66.14366459999292,66.14366459999292,66.34914259999641,66.55729509999219,66.5515880999883,66.55196060000162,66.55729509999219,,67.25243709998904,,,,,,,,,,,,,,,,,,,,,,,,,,,,,,,,,,,,,,,,,,,,,,,,,,,,,,,,,,,,,,,sub102,percept,1,0,2024-08-07_10h04.40.264,ASRT_percept,2023.2.3,143.29562749524547,2024-08-07 10h05.03.085331 +0800,
sequences/sub102_initial_random.csv,3,270,3,1,red,,,,0,0,0,0,0,31,31,31,,,,,,,,,,,,,,,,,,,,,,,,,,,,,67.25829669999075,,,,,,,,,,,,,67.2530254000012,67.25829669999075,67.25829669999075,67.46011299999373,67.70445449999534,1,1,0.4389890999882482,None,67.70516379999754,67.71364599998924,67.71364599998924,67.91864160000114,68.12697029999981,68.12111849999928,68.12115659999836,68.12697029999981,,68.82154569998966,,,,,,,,,,,,,,,,,,,,,,,,,,,,,,,,,,,,,,,,,,,,,,,,,,,,,,,,,,,,,,,sub102,percept,1,0,2024-08-07_10h04.40.264,ASRT_percept,2023.2.3,143.29562749524547,2024-08-07 10h05.03.085331 +0800,
sequences/sub102_initial_random.csv,0,0,0,4,red,,,,0,0,0,0,0,32,32,32,,,,,,,,,,,,,,,,,,,,,,,,,,,,,68.82815599998867,,,,,,,,,,,,,68.8220852999948,68.82815599998867,68.82815599998867,69.02973270000075,69.21903159999056,4,1,0.3861999999935506,None,69.2196355999913,69.22511909999594,69.22511909999594,69.43250019999687,69.64042349999363,69.63493949999975,69.63497319999442,69.64042349999363,,70.3355193999887,,,,,,,,,,,,,,,,,,,,,,,,,,,,,,,,,,,,,,,,,,,,,,,,,,,,,,,,,,,,,,,sub102,percept,1,0,2024-08-07_10h04.40.264,ASRT_percept,2023.2.3,143.29562749524547,2024-08-07 10h05.03.085331 +0800,
sequences/sub102_initial_random.csv,3,270,3,1,red,,,,0,0,0,0,0,33,33,33,,,,,,,,,,,,,,,,,,,,,,,,,,,,,70.342175400001,,,,,,,,,,,,,70.33606950000103,70.342175400001,70.342175400001,70.54305359999125,70.75461629999336,2,0,0.4103712999931304,None,70.75509629999578,70.76340009999694,70.76340009999694,70.966895199992,71.17607259999204,71.16999959999521,71.17005249999056,71.17607259999204,,71.87078849998943,,,,,,,,,,,,,,,,,,,,,,,,,,,,,,,,,,,,,,,,,,,,,,,,,,,,,,,,,,,,,,,sub102,percept,1,0,2024-08-07_10h04.40.264,ASRT_percept,2023.2.3,143.29562749524547,2024-08-07 10h05.03.085331 +0800,
sequences/sub102_initial_random.csv,2,180,2,2,red,,,,0,0,0,0,0,34,34,34,,,,,,,,,,,,,,,,,,,,,,,,,,,,,71.87758839999151,,,,,,,,,,,,,71.87140360000194,71.87758839999151,71.87758839999151,72.07819459999155,72.44130619999487,2,1,0.5589698000112548,None,72.44193319999613,72.45012949999364,72.45012949999364,72.6544925999915,72.86282850000134,72.8572395999945,72.85727819999738,72.86282850000134,,73.55761699999857,,,,,,,,,,,,,,,,,,,,,,,,,,,,,,,,,,,,,,,,,,,,,,,,,,,,,,,,,,,,,,,sub102,percept,1,0,2024-08-07_10h04.40.264,ASRT_percept,2023.2.3,143.29562749524547,2024-08-07 10h05.03.085331 +0800,
sequences/sub102_initial_random.csv,1,90,1,3,red,,,,0,0,0,0,0,35,35,35,,,,,,,,,,,,,,,,,,,,,,,,,,,,,73.5638534000027,,,,,,,,,,,,,73.5582155000011,73.5638534000027,73.5638534000027,73.76588919998903,73.93380790000083,3,1,0.36388069999520667,None,73.93435719999252,73.93979749998834,73.93979749998834,74.1475281999883,74.35579000000143,74.34924989999854,74.34928889998992,74.35579000000143,,75.05032529999153,,,,,,,,,,,,,,,,,,,,,,,,,,,,,,,,,,,,,,,,,,,,,,,,,,,,,,,,,,,,,,,sub102,percept,1,0,2024-08-07_10h04.40.264,ASRT_percept,2023.2.3,143.29562749524547,2024-08-07 10h05.03.085331 +0800,
sequences/sub102_initial_random.csv,0,0,0,4,red,,,,0,0,0,0,0,36,36,36,,,,,,,,,,,,,,,,,,,,,,,,,,,,,75.0570330999908,,,,,,,,,,,,,75.05096409999533,75.0570330999908,75.0570330999908,75.25911889999406,75.46170439998969,4,1,0.40080820000730455,None,75.46235739999975,75.46959729999071,75.46959729999071,75.67504589998862,75.88331749998906,75.87787050000043,75.8779169999907,75.88331749998906,,76.5787483999884,,,,,,,,,,,,,,,,,,,,,,,,,,,,,,,,,,,,,,,,,,,,,,,,,,,,,,,,,,,,,,,sub102,percept,1,0,2024-08-07_10h04.40.264,ASRT_percept,2023.2.3,143.29562749524547,2024-08-07 10h05.03.085331 +0800,
sequences/sub102_initial_random.csv,1,90,1,3,red,,,,0,0,0,0,0,37,37,37,,,,,,,,,,,,,,,,,,,,,,,,,,,,,76.58641439999337,,,,,,,,,,,,,76.57959579999442,76.58641439999337,76.58641439999337,76.78597810000065,76.9614300999965,3,1,0.3710035000112839,None,76.96215459999803,76.9670419999893,76.9670419999893,77.17515779999667,77.38353209999332,77.37723329999426,77.37726609999663,77.38353209999332,,78.07803799999238,,,,,,,,,,,,,,,,,,,,,,,,,,,,,,,,,,,,,,,,,,,,,,,,,,,,,,,,,,,,,,,sub102,percept,1,0,2024-08-07_10h04.40.264,ASRT_percept,2023.2.3,143.29562749524547,2024-08-07 10h05.03.085331 +0800,
sequences/sub102_initial_random.csv,2,180,2,2,red,,,,0,0,0,0,0,38,38,38,,,,,,,,,,,,,,,,,,,,,,,,,,,,,78.08476810000138,,,,,,,,,,,,,78.07864779999363,78.08476810000138,78.08476810000138,78.28621700000076,78.64891340000031,2,1,0.5593630999937886,None,78.64963319999515,78.65583009998954,78.65583009998954,78.86282129999017,79.0708464999916,79.06527629999619,79.06534689999535,79.0708464999916,,79.76593709998997,,,,,,,,,,,,,,,,,,,,,,,,,,,,,,,,,,,,,,,,,,,,,,,,,,,,,,,,,,,,,,,sub102,percept,1,0,2024-08-07_10h04.40.264,ASRT_percept,2023.2.3,143.29562749524547,2024-08-07 10h05.03.085331 +0800,
sequences/sub102_initial_random.csv,1,90,1,3,red,,,,0,0,0,0,0,39,39,39,,,,,,,,,,,,,,,,,,,,,,,,,,,,,79.77498619999096,,,,,,,,,,,,,79.76665599999251,79.77498619999096,79.77498619999096,79.98074869999255,80.12362559999747,3,1,0.3440841999981785,None,80.12483499999507,80.13177399999404,80.13177399999404,80.33493329999328,80.54335799999535,80.53723089999403,80.53728289999708,80.54335799999535,,81.23791959999653,,,,,,,,,,,,,,,,,,,,,,,,,,,,,,,,,,,,,,,,,,,,,,,,,,,,,,,,,,,,,,,sub102,percept,1,0,2024-08-07_10h04.40.264,ASRT_percept,2023.2.3,143.29562749524547,2024-08-07 10h05.03.085331 +0800,
sequences/sub102_initial_random.csv,3,270,3,1,red,,,,0,0,0,0,0,40,40,40,,,,,,,,,,,,,,,,,,,,,,,,,,,,,81.24520999999368,,,,,,,,,,,,,81.23865030000161,81.24520999999368,81.24520999999368,81.44711539999116,81.63714459999755,1,1,0.3867889999964973,None,81.63814569999522,81.64638859999832,81.64638859999832,81.84850999999617,82.0571881999931,82.05109229999653,82.05113009999332,82.0571881999931,,82.7522115999891,,,,,,,,,,,,,,,,,,,,,,,,,,,,,,,,,,,,,,,,,,,,,,,,,,,,,,,,,,,,,,,sub102,percept,1,0,2024-08-07_10h04.40.264,ASRT_percept,2023.2.3,143.29562749524547,2024-08-07 10h05.03.085331 +0800,
sequences/sub102_initial_random.csv,2,180,2,2,red,,,,0,0,0,0,0,41,41,41,,,,,,,,,,,,,,,,,,,,,,,,,,,,,82.76162629999453,,,,,,,,,,,,,82.7529385999951,82.76162629999453,82.76162629999453,82.96733400000085,83.30247539999255,2,1,0.5351249999948777,None,83.30326279999281,83.30959369998891,83.30959369998891,83.51558749999094,83.7240516999882,83.71897279999394,83.7190253000008,83.7240516999882,84.42554899999232,84.41975269999239,,,,,,,,,,,,,,,,,,,,,,,,,,,,,,,,,,,,,,,,,,,,,,,,,,,,,,,,,,,,,,,sub102,percept,1,0,2024-08-07_10h04.40.264,ASRT_percept,2023.2.3,143.29562749524547,2024-08-07 10h05.03.085331 +0800,
sequences/sub102_initial_random.csv,3,270,3,1,red,,,,0,0,0,0,0,42,42,42,,,,,,,,,,,,,,,,,,,,,,,,,,,,,84.42554899999232,,,,,,,,,,,,,84.42039769999974,84.42554899999232,84.42554899999232,84.62688569999591,84.7824236000015,4,0,0.34878139999636915,None,84.7831262999971,84.7941307000001,84.7941307000001,84.99529549998988,85.20281719999912,85.19743039998866,85.19747749999806,85.20281719999912,,85.89782859999104,,,,,,,,,,,,,,,,,,,,,,,,,,,,,,,,,,,,,,,,,,,,,,,,,,,,,,,,,,,,,,,sub102,percept,1,0,2024-08-07_10h04.40.264,ASRT_percept,2023.2.3,143.29562749524547,2024-08-07 10h05.03.085331 +0800,
sequences/sub102_initial_random.csv,1,90,1,3,red,,,,0,0,0,0,0,43,43,43,,,,,,,,,,,,,,,,,,,,,,,,,,,,,85.90507029999571,,,,,,,,,,,,,85.89847839999129,85.90507029999571,85.90507029999571,86.1058051,86.25347489998967,3,1,0.3421859000081895,None,86.25411989999702,86.26456319999124,86.26456319999124,86.46698879999167,86.67512970000098,86.6698161999957,86.66986979999638,86.67512970000098,,87.37042759999167,,,,,,,,,,,,,,,,,,,,,,,,,,,,,,,,,,,,,,,,,,,,,,,,,,,,,,,,,,,,,,,sub102,percept,1,0,2024-08-07_10h04.40.264,ASRT_percept,2023.2.3,143.29562749524547,2024-08-07 10h05.03.085331 +0800,
sequences/sub102_initial_random.csv,3,270,3,1,red,,,,0,0,0,0,0,44,44,44,,,,,,,,,,,,,,,,,,,,,,,,,,,,,87.37591319999774,,,,,,,,,,,,,87.37101769998844,87.37591319999774,87.37591319999774,87.58017069999187,87.77453239999886,1,1,0.3926478999928804,None,87.77517599999555,87.78270589999738,87.78270589999738,87.98777379999228,88.1988937999995,88.19123539999418,88.19132839998929,88.1988937999995,,88.89780159998918,,,,,,,,,,,,,,,,,,,,,,,,,,,,,,,,,,,,,,,,,,,,,,,,,,,,,,,,,,,,,,,sub102,percept,1,0,2024-08-07_10h04.40.264,ASRT_percept,2023.2.3,143.29562749524547,2024-08-07 10h05.03.085331 +0800,
sequences/sub102_initial_random.csv,3,270,3,1,red,,,,0,0,0,0,0,45,45,45,,,,,,,,,,,,,,,,,,,,,,,,,,,,,88.90682179998839,,,,,,,,,,,,,88.89862149998953,88.90682179998839,88.90682179998839,89.11267360000056,89.24050759999955,1,1,0.32585729999118485,None,89.24126929999329,89.25021959999867,89.25021959999867,89.45291569999245,89.66104339998856,89.65607749999617,89.65613079999457,89.66104339998856,90.3635501999961,90.3568011999887,,,,,,,,,,,,,,,,,,,,,,,,,,,,,,,,,,,,,,,,,,,,,,,,,,,,,,,,,,,,,,,sub102,percept,1,0,2024-08-07_10h04.40.264,ASRT_percept,2023.2.3,143.29562749524547,2024-08-07 10h05.03.085331 +0800,
sequences/sub102_initial_random.csv,3,270,3,1,red,,,,0,0,0,0,0,46,46,46,,,,,,,,,,,,,,,,,,,,,,,,,,,,,90.3635501999961,,,,,,,,,,,,,90.35756939998828,90.3635501999961,90.3635501999961,90.5645566000021,90.69307829999889,1,1,0.32363870000699535,None,90.69406309998885,90.70073139999295,90.70073139999295,90.90399369999068,91.11241519999749,91.1075831999915,91.10762879998947,91.11241519999749,91.81374199999846,91.80778829999326,,,,,,,,,,,,,,,,,,,,,,,,,,,,,,,,,,,,,,,,,,,,,,,,,,,,,,,,,,,,,,,sub102,percept,1,0,2024-08-07_10h04.40.264,ASRT_percept,2023.2.3,143.29562749524547,2024-08-07 10h05.03.085331 +0800,
sequences/sub102_initial_random.csv,1,90,1,3,red,,,,0,0,0,0,0,47,47,47,,,,,,,,,,,,,,,,,,,,,,,,,,,,,91.81374199999846,,,,,,,,,,,,,91.80845359999512,91.81374199999846,91.81374199999846,92.01529019999725,92.1889486,3,1,0.3630008999898564,None,92.18967169999087,92.19699379999656,92.19699379999656,92.39724910000223,92.60613429998921,92.60059799998999,92.6006148000015,92.60613429998921,93.30859980000241,93.30177619999449,,,,,,,,,,,,,,,,,,,,,,,,,,,,,,,,,,,,,,,,,,,,,,,,,,,,,,,,,,,,,,,sub102,percept,1,0,2024-08-07_10h04.40.264,ASRT_percept,2023.2.3,143.29562749524547,2024-08-07 10h05.03.085331 +0800,
sequences/sub102_initial_random.csv,0,0,0,4,red,,,,0,0,0,0,0,48,48,48,,,,,,,,,,,,,,,,,,,,,,,,,,,,,93.30859980000241,,,,,,,,,,,,,93.302503599989,93.30859980000241,93.30859980000241,93.50761649999185,93.76770189999661,4,1,0.45590999998967163,None,93.76840169999923,93.77496379999502,93.77496379999502,93.98061299999245,94.18891539999458,94.18249829999695,94.18257879999874,94.18891539999458,,94.88364099999308,,,,,,,,,,,,,,,,,,,,,,,,,,,,,,,,,,,,,,,,,,,,,,,,,,,,,,,,,,,,,,,sub102,percept,1,0,2024-08-07_10h04.40.264,ASRT_percept,2023.2.3,143.29562749524547,2024-08-07 10h05.03.085331 +0800,
sequences/sub102_initial_random.csv,0,0,0,4,red,,,,0,0,0,0,0,49,49,49,,,,,,,,,,,,,,,,,,,,,,,,,,,,,94.88978469998983,,,,,,,,,,,,,94.88432549999561,94.88978469998983,94.88978469998983,95.09176719999232,95.3290061000007,4,1,0.4326897999999346,None,95.32953589998942,95.33431029999338,95.33431029999338,95.5429437999992,95.75119519999134,95.74472089999472,95.74475159999565,95.75119519999134,,96.44632999999158,,,,,,,,,,,,,,,,,,,,,,,,,,,,,,,,,,,,,,,,,,,,,,,,,,,,,,,,,,,,,,,sub102,percept,1,0,2024-08-07_10h04.40.264,ASRT_percept,2023.2.3,143.29562749524547,2024-08-07 10h05.03.085331 +0800,
sequences/sub102_initial_random.csv,3,270,3,1,red,,,,0,0,0,0,0,50,50,50,,,,,,,,,,,,,,,,,,,,,,,,,,,,,96.45421689999057,,,,,,,,,,,,,96.4470064999914,96.45421689999057,96.45421689999057,96.65401899999415,96.90663909999421,1,1,0.44813910000084434,None,96.90737349999836,96.9146241999988,96.9146241999988,97.11918680000235,97.32858380000107,97.32289919999312,97.32294959999854,97.32858380000107,98.02884269999049,98.02321569999913,,,,,,,,,,,,,,,,,,,,,,,,,,,,,,,,,,,,,,,,,,,,,,,,,,,,,,,,,,,,,,,sub102,percept,1,0,2024-08-07_10h04.40.264,ASRT_percept,2023.2.3,143.29562749524547,2024-08-07 10h05.03.085331 +0800,
sequences/sub102_initial_random.csv,1,90,1,3,red,,,,0,0,0,0,0,51,51,51,,,,,,,,,,,,,,,,,,,,,,,,,,,,,98.02884269999049,,,,,,,,,,,,,98.0238546999899,98.02884269999049,98.02884269999049,98.23076999999466,98.40736789999937,3,1,0.3756279999943217,None,98.4079783999914,98.41609499999322,98.41609499999322,98.62115029999404,98.82770829999936,98.82243559999915,98.8224870999984,98.82770829999936,99.52994129998842,99.52309099999547,,,,,,,,,,,,,,,,,,,,,,,,,,,,,,,,,,,,,,,,,,,,,,,,,,,,,,,,,,,,,,,sub102,percept,1,0,2024-08-07_10h04.40.264,ASRT_percept,2023.2.3,143.29562749524547,2024-08-07 10h05.03.085331 +0800,
sequences/sub102_initial_random.csv,0,0,0,4,red,,,,0,0,0,0,0,52,52,52,,,,,,,,,,,,,,,,,,,,,,,,,,,,,99.52994129998842,,,,,,,,,,,,,99.52388409999548,99.52994129998842,99.52994129998842,99.73067419999279,100.0522490000003,4,1,0.5149144000024535,None,100.0530221999943,100.05938349998905,100.05938349998905,100.2650777999952,100.47350949999236,100.46744300000137,100.46748919998936,100.47350949999236,,101.16838639999332,,,,,,,,,,,,,,,,,,,,,,,,,,,,,,,,,,,,,,,,,,,,,,,,,,,,,,,,,,,,,,,sub102,percept,1,0,2024-08-07_10h04.40.264,ASRT_percept,2023.2.3,143.29562749524547,2024-08-07 10h05.03.085331 +0800,
sequences/sub102_initial_random.csv,0,0,0,4,red,,,,0,0,0,0,0,53,53,53,,,,,,,,,,,,,,,,,,,,,,,,,,,,,101.17463280000084,,,,,,,,,,,,,101.16898969998874,101.17463280000084,101.17463280000084,101.37671939999564,101.63002250000136,4,1,0.452245699998457,None,101.63071879999188,101.63948639998853,101.63948639998853,101.84123959999124,102.04972860000271,102.04430490000232,102.04435319999175,102.04972860000271,,102.74478959999396,,,,,,,,,,,,,,,,,,,,,,,,,,,,,,,,,,,,,,,,,,,,,,,,,,,,,,,,,,,,,,,sub102,percept,1,0,2024-08-07_10h04.40.264,ASRT_percept,2023.2.3,143.29562749524547,2024-08-07 10h05.03.085331 +0800,
sequences/sub102_initial_random.csv,0,0,0,4,red,,,,0,0,0,0,0,54,54,54,,,,,,,,,,,,,,,,,,,,,,,,,,,,,102.75394179999421,,,,,,,,,,,,,102.74561250000261,102.75394179999421,102.75394179999421,102.95952779999061,103.0962448999926,4,1,0.33563000000140164,None,103.09722070000134,103.10853559999669,103.10853559999669,103.30723739998939,103.5149354999885,103.50867080000171,103.50871239999833,103.5149354999885,,104.2100686999911,,,,,,,,,,,,,,,,,,,,,,,,,,,,,,,,,,,,,,,,,,,,,,,,,,,,,,,,,,,,,,,sub102,percept,1,0,2024-08-07_10h04.40.264,ASRT_percept,2023.2.3,143.29562749524547,2024-08-07 10h05.03.085331 +0800,
sequences/sub102_initial_random.csv,1,90,1,3,red,,,,0,0,0,0,0,55,55,55,,,,,,,,,,,,,,,,,,,,,,,,,,,,,104.21746339999663,,,,,,,,,,,,,104.21084420000261,104.21746339999663,104.21746339999663,104.41959569999017,104.5608540999965,3,1,0.3392530999990413,None,104.561681399995,104.56791639998846,104.56791639998846,104.77213409999968,104.97992769999837,104.97429119999288,104.9743429999944,104.97992769999837,,105.67504469999403,,,,,,,,,,,,,,,,,,,,,,,,,,,,,,,,,,,,,,,,,,,,,,,,,,,,,,,,,,,,,,,sub102,percept,1,0,2024-08-07_10h04.40.264,ASRT_percept,2023.2.3,143.29562749524547,2024-08-07 10h05.03.085331 +0800,
sequences/sub102_initial_random.csv,3,270,3,1,red,,,,0,0,0,0,0,56,56,56,,,,,,,,,,,,,,,,,,,,,,,,,,,,,105.68275239999639,,,,,,,,,,,,,105.6757643000019,105.68275239999639,105.68275239999639,105.88302389999444,106.01802629999293,1,1,0.33055090000561904,None,106.01894359999278,106.02562970000145,106.02562970000145,106.23033510000096,106.4386586999899,106.4329957000009,106.43304229999194,106.4386586999899,,107.13328290000209,,,,,,,,,,,,,,,,,,,,,,,,,,,,,,,,,,,,,,,,,,,,,,,,,,,,,,,,,,,,,,,sub102,percept,1,0,2024-08-07_10h04.40.264,ASRT_percept,2023.2.3,143.29562749524547,2024-08-07 10h05.03.085331 +0800,
sequences/sub102_initial_random.csv,0,0,0,4,red,,,,0,0,0,0,0,57,57,57,,,,,,,,,,,,,,,,,,,,,,,,,,,,,107.14043559999845,,,,,,,,,,,,,107.1339244999981,107.14043559999845,107.14043559999845,107.34142499999143,107.48210449999897,4,1,0.33687659999122843,None,107.48282319999998,107.4903137999936,107.4903137999936,107.69829629999003,107.90372360000038,107.89803299999039,107.89807969999674,107.90372360000038,,108.59874449999188,,,,,,,,,,,,,,,,,,,,,,,,,,,,,,,,,,,,,,,,,,,,,,,,,,,,,,,,,,,,,,,sub102,percept,1,0,2024-08-07_10h04.40.264,ASRT_percept,2023.2.3,143.29562749524547,2024-08-07 10h05.03.085331 +0800,
sequences/sub102_initial_random.csv,3,270,3,1,red,,,,0,0,0,0,0,58,58,58,,,,,,,,,,,,,,,,,,,,,,,,,,,,,108.6076533000014,,,,,,,,,,,,,108.59962989999622,108.6076533000014,108.6076533000014,108.8135004999931,108.92802139998821,1,1,0.3125640999933239,None,108.92870589999075,108.93507849999878,108.93507849999878,109.13960090000182,109.34915539999201,109.3435354999965,109.34358339999744,109.34915539999201,110.04898939999111,110.0432456999988,,,,,,,,,,,,,,,,,,,,,,,,,,,,,,,,,,,,,,,,,,,,,,,,,,,,,,,,,,,,,,,sub102,percept,1,0,2024-08-07_10h04.40.264,ASRT_percept,2023.2.3,143.29562749524547,2024-08-07 10h05.03.085331 +0800,
sequences/sub102_initial_random.csv,1,90,1,3,red,,,,0,0,0,0,0,59,59,59,,,,,,,,,,,,,,,,,,,,,,,,,,,,,110.04898939999111,,,,,,,,,,,,,110.04375519999303,110.04898939999111,110.04898939999111,110.25106329999107,110.41273430000001,3,1,0.3582470999972429,None,110.41337609999755,110.42195530000026,110.42195530000026,110.62580529999104,110.83511790000193,110.82898949999071,110.82904039999994,110.83511790000193,111.53662719999556,111.52989819999493,,,,,,,,,,,,,,,,,,,,,,,,,,,,,,,,,,,,,,,,,,,,,,,,,,,,,,,,,,,,,,,sub102,percept,1,0,2024-08-07_10h04.40.264,ASRT_percept,2023.2.3,143.29562749524547,2024-08-07 10h05.03.085331 +0800,
sequences/sub102_initial_random.csv,2,180,2,2,red,,,,0,0,0,0,0,60,60,60,,,,,,,,,,,,,,,,,,,,,,,,,,,,,111.53662719999556,,,,,,,,,,,,,111.53055019999738,111.53662719999556,111.53662719999556,111.7371254000027,112.06563610000012,2,1,0.5218282999994699,None,112.0662932999985,112.07237290000194,112.07237290000194,112.27933900000062,112.4867896999931,112.48080109999864,112.48083719999704,112.4867896999931,,113.18149239999184,,,,,,,,,,,,,,,,,,,,,,,,,,,,,,,,,,,,,,,,,,,,,,,,,,,,,,,,,,,,,,,sub102,percept,1,0,2024-08-07_10h04.40.264,ASRT_percept,2023.2.3,143.29562749524547,2024-08-07 10h05.03.085331 +0800,
sequences/sub102_initial_random.csv,1,90,1,3,red,,,,0,0,0,0,0,61,61,61,,,,,,,,,,,,,,,,,,,,,,,,,,,,,113.18826749999425,,,,,,,,,,,,,113.18205309999757,113.18826749999425,113.18826749999425,113.3900389999908,113.622661100002,3,1,0.4267712000000756,None,113.62361830000009,113.63101209999877,113.63101209999877,113.83399709999503,114.04323609999847,114.03783709999698,114.03788279999571,114.04323609999847,114.74351109999407,114.73757929999556,,,,,,,,,,,,,,,,,,,,,,,,,,,,,,,,,,,,,,,,,,,,,,,,,,,,,,,,,,,,,,,sub102,percept,1,0,2024-08-07_10h04.40.264,ASRT_percept,2023.2.3,143.29562749524547,2024-08-07 10h05.03.085331 +0800,
sequences/sub102_initial_random.csv,0,0,0,4,red,,,,0,0,0,0,0,62,62,62,,,,,,,,,,,,,,,,,,,,,,,,,,,,,114.74351109999407,,,,,,,,,,,,,114.73807439999655,114.74351109999407,114.74351109999407,114.9456410999992,115.1910796000011,4,1,0.43795989999489393,None,115.19192250000197,115.2002313999983,115.2002313999983,115.4035559999902,115.61165459999756,115.60586279998824,115.60590789999696,115.61165459999756,,116.3067091999983,,,,,,,,,,,,,,,,,,,,,,,,,,,,,,,,,,,,,,,,,,,,,,,,,,,,,,,,,,,,,,,sub102,percept,1,0,2024-08-07_10h04.40.264,ASRT_percept,2023.2.3,143.29562749524547,2024-08-07 10h05.03.085331 +0800,
sequences/sub102_initial_random.csv,1,90,1,3,red,,,,0,0,0,0,0,63,63,63,,,,,,,,,,,,,,,,,,,,,,,,,,,,,116.31382999999914,,,,,,,,,,,,,116.30755169999611,116.31382999999914,116.31382999999914,116.51501589998952,116.64938009998878,3,1,0.32804849999956787,None,116.65028489999531,116.65810509999574,116.65810509999574,116.86174569999275,117.07035709999036,117.0652296999906,117.06528850000177,117.07035709999036,117.77146679999714,117.76510409999173,,,,,,,,,,,,,,,,,,,,,,,,,,,,,,,,,,,,,,,,,,,,,,,,,,,,,,,,,,,,,,,sub102,percept,1,0,2024-08-07_10h04.40.264,ASRT_percept,2023.2.3,143.29562749524547,2024-08-07 10h05.03.085331 +0800,
sequences/sub102_initial_random.csv,1,90,1,3,red,,,,0,0,0,0,0,64,64,64,,,,,,,,,,,,,,,,,,,,,,,,,,,,,117.77146679999714,,,,,,,,,,,,,117.76554319998831,117.77146679999714,117.77146679999714,117.97342070000013,118.11673829999927,3,1,0.33684259999427013,None,118.11783399998967,118.12484589999076,118.12484589999076,118.32666639999661,118.53535130000091,118.52887779999583,118.52891129998898,118.53535130000091,,119.23011649999535,,,,,,,,,,,,,,,,,,,,,,,,,,,,,,,,,,,,,,,,,,,,,,,,,,,,,,,,,,,,,,,sub102,percept,1,0,2024-08-07_10h04.40.264,ASRT_percept,2023.2.3,143.29562749524547,2024-08-07 10h05.03.085331 +0800,
sequences/sub102_initial_random.csv,0,0,0,4,red,,,,0,0,0,0,0,65,65,65,,,,,,,,,,,,,,,,,,,,,,,,,,,,,119.23800559999654,,,,,,,,,,,,,119.23101249999308,119.23800559999654,119.23800559999654,119.43824869999662,119.71882809999806,4,1,0.47432629999821074,None,119.71989089999988,119.72655139998824,119.72655139998824,119.9309937999933,120.13940269999148,120.1344659000024,120.13451199998963,120.13940269999148,120.84164159999636,120.83552179999242,,,,,,,,,,,,,,,,,,,,,,,,,,,,,,,,,,,,,,,,,,,,,,,,,,,,,,,,,,,,,,,sub102,percept,1,0,2024-08-07_10h04.40.264,ASRT_percept,2023.2.3,143.29562749524547,2024-08-07 10h05.03.085331 +0800,
sequences/sub102_initial_random.csv,3,270,3,1,red,,,,0,0,0,0,0,66,66,66,,,,,,,,,,,,,,,,,,,,,,,,,,,,,120.84164159999636,,,,,,,,,,,,,120.83622289999039,120.84164159999636,120.84164159999636,121.0427200999984,121.18478709999181,3,0,0.3382876999967266,None,121.1855227999913,121.19724429999769,121.19724429999769,121.39650000000256,121.60493960000167,121.59944089999772,121.59948859999713,121.60493960000167,,122.3001377999899,,,,,,,,,,,,,,,,,,,,,,,,,,,,,,,,,,,,,,,,,,,,,,,,,,,,,,,,,,,,,,,sub102,percept,1,0,2024-08-07_10h04.40.264,ASRT_percept,2023.2.3,143.29562749524547,2024-08-07 10h05.03.085331 +0800,
sequences/sub102_initial_random.csv,1,90,1,3,red,,,,0,0,0,0,0,67,67,67,,,,,,,,,,,,,,,,,,,,,,,,,,,,,122.30732589999388,,,,,,,,,,,,,122.30094159999862,122.30732589999388,122.30732589999388,122.5074495000008,122.69752259999223,3,1,0.38284620000922587,None,122.69818680000026,122.70634509999945,122.70634509999945,122.91064969998843,123.11893440000131,123.11367389999214,123.11372529999062,123.11893440000131,123.82086079999863,123.81446069999947,,,,,,,,,,,,,,,,,,,,,,,,,,,,,,,,,,,,,,,,,,,,,,,,,,,,,,,,,,,,,,,sub102,percept,1,0,2024-08-07_10h04.40.264,ASRT_percept,2023.2.3,143.29562749524547,2024-08-07 10h05.03.085331 +0800,
sequences/sub102_initial_random.csv,0,0,0,4,red,,,,0,0,0,0,0,68,68,68,,,,,,,,,,,,,,,,,,,,,,,,,,,,,123.82086079999863,,,,,,,,,,,,,123.81525689999398,123.82086079999863,123.82086079999863,124.02199569999357,124.17679469998984,4,1,0.34929709999414627,None,124.17764319998969,124.18536829999357,124.18536829999357,124.38983390000067,124.5980947999924,124.59272139999666,124.59277329999895,124.5980947999924,125.29923049999343,125.29370929999277,,,,,,,,,,,,,,,,,,,,,,,,,,,,,,,,,,,,,,,,,,,,,,,,,,,,,,,,,,,,,,,sub102,percept,1,0,2024-08-07_10h04.40.264,ASRT_percept,2023.2.3,143.29562749524547,2024-08-07 10h05.03.085331 +0800,
sequences/sub102_initial_random.csv,3,270,3,1,red,,,,0,0,0,0,0,69,69,69,,,,,,,,,,,,,,,,,,,,,,,,,,,,,125.29923049999343,,,,,,,,,,,,,125.29430189999403,125.29923049999343,125.29923049999343,125.5006493999972,125.69185489999654,1,1,0.38822320000326727,None,125.6926431999891,125.70225689999643,125.70225689999643,125.90341479999188,126.11128979999921,126.10586559999501,126.10589929998969,126.11128979999921,,126.8061391999945,,,,,,,,,,,,,,,,,,,,,,,,,,,,,,,,,,,,,,,,,,,,,,,,,,,,,,,,,,,,,,,sub102,percept,1,0,2024-08-07_10h04.40.264,ASRT_percept,2023.2.3,143.29562749524547,2024-08-07 10h05.03.085331 +0800,
sequences/sub102_initial_random.csv,2,180,2,2,red,,,,0,0,0,0,0,70,70,70,,,,,,,,,,,,,,,,,,,,,,,,,,,,,126.8130303999933,,,,,,,,,,,,,126.80675569998857,126.8130303999933,126.8130303999933,127.01458170000114,127.18335520000255,2,1,0.366733299990301,None,127.18397630000254,127.19042269999045,127.19042269999045,127.39674679999007,127.60462589999952,127.59861359999923,127.59864820000075,127.60462589999952,,128.29954989999533,,,,,,,,,,,,,,,,,,,,,,,,,,,,,,,,,,,,,,,,,,,,,,,,,,,,,,,,,,,,,,,sub102,percept,1,0,2024-08-07_10h04.40.264,ASRT_percept,2023.2.3,143.29562749524547,2024-08-07 10h05.03.085331 +0800,
sequences/sub102_initial_random.csv,1,90,1,3,red,,,,0,0,0,0,0,71,71,71,,,,,,,,,,,,,,,,,,,,,,,,,,,,,128.30738829998882,,,,,,,,,,,,,128.30023699998856,128.30738829998882,128.30738829998882,128.50761429998965,128.676556099992,3,1,0.3657643000042299,None,128.6772015000024,128.68613049999112,128.68613049999112,128.88956470000267,129.09804599999916,129.09225839999272,129.09230079999543,129.09804599999916,129.79877839999972,129.79326959999162,,,,,,,,,,,,,,,,,,,,,,,,,,,,,,,,,,,,,,,,,,,,,,,,,,,,,,,,,,,,,,,sub102,percept,1,0,2024-08-07_10h04.40.264,ASRT_percept,2023.2.3,143.29562749524547,2024-08-07 10h05.03.085331 +0800,
sequences/sub102_initial_random.csv,2,180,2,2,red,,,,0,0,0,0,0,72,72,72,,,,,,,,,,,,,,,,,,,,,,,,,,,,,129.79877839999972,,,,,,,,,,,,,129.7938856999972,129.79877839999972,129.79877839999972,130.00093779999588,130.3503411999991,2,1,0.547516499995254,None,130.3510777999909,130.35889750000206,130.35889750000206,130.5630708999961,130.77123649998975,130.7655369999993,130.76555799999915,130.77123649998975,,131.46622649999335,,,,,,,,,,,,,,,,,,,,,,,,,,,,,,,,,,,,,,,,,,,,,,,,,,,,,,,,,,,,,,,sub102,percept,1,0,2024-08-07_10h04.40.264,ASRT_percept,2023.2.3,143.29562749524547,2024-08-07 10h05.03.085331 +0800,
sequences/sub102_initial_random.csv,1,90,1,3,red,,,,0,0,0,0,0,73,73,73,,,,,,,,,,,,,,,,,,,,,,,,,,,,,131.4743359999993,,,,,,,,,,,,,131.46707929999684,131.4743359999993,131.4743359999993,131.67410530000052,131.8643860000011,3,1,0.3832290999998804,None,131.86529809999047,131.873156799993,131.873156799993,132.0767676999967,132.2854556999955,132.2797176000022,132.27977129998908,132.2854556999955,,132.98024540000188,,,,,,,,,,,,,,,,,,,,,,,,,,,,,,,,,,,,,,,,,,,,,,,,,,,,,,,,,,,,,,,sub102,percept,1,0,2024-08-07_10h04.40.264,ASRT_percept,2023.2.3,143.29562749524547,2024-08-07 10h05.03.085331 +0800,
sequences/sub102_initial_random.csv,1,90,1,3,red,,,,0,0,0,0,0,74,74,74,,,,,,,,,,,,,,,,,,,,,,,,,,,,,132.989259199996,,,,,,,,,,,,,132.98135109999566,132.989259199996,132.989259199996,133.18766669998877,133.3497517999931,3,1,0.3547282999934396,None,133.35049969999818,133.35832629998913,133.35832629998913,133.56647219999286,133.77137380000204,133.76542879999033,133.76546869998856,133.77137380000204,,134.46620009999606,,,,,,,,,,,,,,,,,,,,,,,,,,,,,,,,,,,,,,,,,,,,,,,,,,,,,,,,,,,,,,,sub102,percept,1,0,2024-08-07_10h04.40.264,ASRT_percept,2023.2.3,143.29562749524547,2024-08-07 10h05.03.085331 +0800,
sequences/sub102_initial_random.csv,1,90,1,3,red,,,,0,0,0,0,0,75,75,75,,,,,,,,,,,,,,,,,,,,,,,,,,,,,134.47224920000008,,,,,,,,,,,,,134.46696520000114,134.47224920000008,134.47224920000008,134.67403969999577,134.80122599999595,3,1,0.3259156999993138,None,134.80178179999348,134.80789989999903,134.80789989999903,135.01414849999128,135.22259900000063,135.21658249999746,135.21662849999848,135.22259900000063,,135.91761429999315,,,,,,,,,,,,,,,,,,,,,,,,,,,,,,,,,,,,,,,,,,,,,,,,,,,,,,,,,,,,,,,sub102,percept,1,0,2024-08-07_10h04.40.264,ASRT_percept,2023.2.3,143.29562749524547,2024-08-07 10h05.03.085331 +0800,
sequences/sub102_initial_random.csv,2,180,2,2,red,,,,0,0,0,0,0,76,76,76,,,,,,,,,,,,,,,,,,,,,,,,,,,,,135.929140799999,,,,,,,,,,,,,135.91855139999825,135.929140799999,135.929140799999,136.13259419999667,136.48965219999081,2,1,0.5566173999977764,None,136.49062250000134,136.49919899999804,136.49919899999804,136.7024941999989,136.91141349999816,136.90508939999563,136.9051424999925,136.91141349999816,137.61903989998973,137.60652789998858,,,,,,,,,,,,,,,,,,,,,,,,,,,,,,,,,,,,,,,,,,,,,,,,,,,,,,,,,,,,,,,sub102,percept,1,0,2024-08-07_10h04.40.264,ASRT_percept,2023.2.3,143.29562749524547,2024-08-07 10h05.03.085331 +0800,
sequences/sub102_initial_random.csv,0,0,0,4,red,,,,0,0,0,0,0,77,77,77,,,,,,,,,,,,,,,,,,,,,,,,,,,,,137.61903989998973,,,,,,,,,,,,,137.6076189000014,137.61903989998973,137.61903989998973,137.81969589999062,138.23953330000222,4,1,0.6157666000071913,None,138.24040569999488,138.25035839999327,138.25035839999327,138.4518073999934,138.6600252999924,138.65455749999091,138.6546001999959,138.6600252999924,,139.35531909999554,,,,,,,,,,,,,,,,,,,,,,,,,,,,,,,,,,,,,,,,,,,,,,,,,,,,,,,,,,,,,,,sub102,percept,1,0,2024-08-07_10h04.40.264,ASRT_percept,2023.2.3,143.29562749524547,2024-08-07 10h05.03.085331 +0800,
sequences/sub102_initial_random.csv,3,270,3,1,red,,,,0,0,0,0,0,78,78,78,,,,,,,,,,,,,,,,,,,,,,,,,,,,,139.36327919999894,,,,,,,,,,,,,139.3561550000013,139.36327919999894,139.36327919999894,139.5631743999984,139.75520329999563,1,1,0.3880868999985978,None,139.75597499999276,139.7621732999978,139.7621732999978,139.9654778999975,140.17422519999673,140.16855919999944,140.16860879999876,140.17422519999673,,140.86942999999155,,,,,,,,,,,,,,,,,,,,,,,,,,,,,,,,,,,,,,,,,,,,,,,,,,,,,,,,,,,,,,,sub102,percept,1,0,2024-08-07_10h04.40.264,ASRT_percept,2023.2.3,143.29562749524547,2024-08-07 10h05.03.085331 +0800,
sequences/sub102_initial_random.csv,1,90,1,3,red,,,,0,0,0,0,0,79,79,79,,,,,,,,,,,,,,,,,,,,,,,,,,,,,140.8788937999925,,,,,,,,,,,,,140.8707762999984,140.8788937999925,140.8788937999925,141.0842394999927,141.43401579999772,3,1,0.5480540999997174,None,141.43473480000102,141.44008819999,141.44008819999,141.6460025999986,141.85397250000096,141.8474045999901,141.84742219999316,141.85397250000096,,142.54906429999392,,,,,,,,,,,,,,,,,,,,,,,,,,,,,,,,,,,,,,,,,,,,,,,,,,,,,,,,,,,,,,,sub102,percept,1,0,2024-08-07_10h04.40.264,ASRT_percept,2023.2.3,143.29562749524547,2024-08-07 10h05.03.085331 +0800,
sequences/sub102_initial_random.csv,3,270,3,1,red,,,,0,0,0,0,0,80,80,80,,,,,,,,,,,,,,,,,,,,,,,,,,,,,142.55535670000245,,,,,,,,,,,,,142.5496567999944,142.55535670000245,142.55535670000245,142.75726689999283,142.92634789999283,1,1,0.36530010000569746,None,142.92733649999718,142.93810200000007,142.93810200000007,143.13880400000198,143.34739369999443,143.341485500001,143.34152489999542,143.34739369999443,,144.04195329999493,,,,,,,,,,,,,,,,,,,,,,,,,,,,,,,,,,,,,,,,,,,,,,,,,,,,,,,,,,,,,,,sub102,percept,1,0,2024-08-07_10h04.40.264,ASRT_percept,2023.2.3,143.29562749524547,2024-08-07 10h05.03.085331 +0800,
sequences/sub102_initial_random.csv,3,270,3,1,red,,,,0,0,0,0,0,81,81,81,,,,,,,,,,,,,,,,,,,,,,,,,,,,,144.04865119999158,,,,,,,,,,,,,144.04266169999028,144.04865119999158,144.04865119999158,144.25028619999648,144.42122669999662,1,1,0.36859549999644514,None,144.4222499000025,144.4313925000024,144.4313925000024,144.6319466999994,144.84015170000202,144.83399539999664,144.83403050000197,144.84015170000202,,145.5352717999922,,,,,,,,,,,,,,,,,,,,,,,,,,,,,,,,,,,,,,,,,,,,,,,,,,,,,,,,,,,,,,,sub102,percept,1,0,2024-08-07_10h04.40.264,ASRT_percept,2023.2.3,143.29562749524547,2024-08-07 10h05.03.085331 +0800,
sequences/sub102_initial_random.csv,0,0,0,4,red,,,,0,0,0,0,0,82,82,82,,,,,,,,,,,,,,,,,,,,,,,,,,,,,145.541996999993,,,,,,,,,,,,,145.53599789999134,145.541996999993,145.541996999993,145.74338269999134,146.1346773999976,4,1,0.5877138999931049,None,146.1355285000027,146.1439907999884,146.1439907999884,146.34712880000006,146.55707779999648,146.55025879999448,146.55030489999626,146.55707779999648,147.25740079999377,147.2511763999937,,,,,,,,,,,,,,,,,,,,,,,,,,,,,,,,,,,,,,,,,,,,,,,,,,,,,,,,,,,,,,,sub102,percept,1,0,2024-08-07_10h04.40.264,ASRT_percept,2023.2.3,143.29562749524547,2024-08-07 10h05.03.085331 +0800,
sequences/sub102_initial_random.csv,2,180,2,2,red,,,,0,0,0,0,0,83,83,83,,,,,,,,,,,,,,,,,,,,,,,,,,,,,147.25740079999377,,,,,,,,,,,,,147.25194180000108,147.25740079999377,147.25740079999377,147.45825169999443,147.65548889999627,3,0,0.39323709999735,None,147.65617269999348,147.66676229999575,147.66676229999575,147.8681118999957,148.07628529999056,148.07092659999034,148.07097349999822,148.07628529999056,,148.7718448999949,,,,,,,,,,,,,,,,,,,,,,,,,,,,,,,,,,,,,,,,,,,,,,,,,,,,,,,,,,,,,,,sub102,percept,1,0,2024-08-07_10h04.40.264,ASRT_percept,2023.2.3,143.29562749524547,2024-08-07 10h05.03.085331 +0800,
sequences/sub102_initial_random.csv,2,180,2,2,red,,,,0,0,0,0,0,84,84,84,,,,,,,,,,,,,,,,,,,,,,,,,,,,,148.77835069999855,,,,,,,,,,,,,148.77256719999423,148.77835069999855,148.77835069999855,148.97912299999734,149.2728769999958,2,1,0.4886615999857895,None,149.2735362999956,149.2795441999915,149.2795441999915,149.48635719998856,149.69424389999767,149.68900379999832,149.68905020000238,149.69424389999767,,150.38922230000026,,,,,,,,,,,,,,,,,,,,,,,,,,,,,,,,,,,,,,,,,,,,,,,,,,,,,,,,,,,,,,,sub102,percept,1,0,2024-08-07_10h04.40.264,ASRT_percept,2023.2.3,143.29562749524547,2024-08-07 10h05.03.085331 +0800,
,,,,,,,,,,,,,,,,,,,,,,,,,,,,,,,,,,,,,,,,,,,,,,,,,,,,,,,,,,,,,,,,,,,,,,,,,,,,,150.38947739999276,150.43234709999524,150.43234709999524,154.4379571999889,174.9254465999984,space,24.486032000000705,None,174.92639189999318,174.9353221999918,174.9353221999918,174.9353221999918,191.66015830000106,space,16.718822499999078,None,,,,,,,,,,,,,,,,,,,,,,,,,,,,,,,,,,,,,,,,,,,,,,,sub102,percept,1,0,2024-08-07_10h04.40.264,ASRT_percept,2023.2.3,143.29562749524547,2024-08-07 10h05.03.085331 +0800,
,3,270,0,4,red,sequences/sub102_practice_sequence_00.csv,,,,,,,,,,,0,0,0,0,0,0,0,72,,,,,,,,,,,,,,,,,,,,,192.7130688999896,,,,,,,,,,191.74240309999732,191.75395289999142,192.66432479998912,192.70488489999843,192.7130688999896,192.7130688999896,192.91449319999083,193.56412969999656,4,1,0.8461644000053639,None,193.56559939999715,193.57240259999526,193.57240259999526,193.7750350999995,193.98344080000243,193.97765210000216,193.97768630000064,193.98344080000243,,194.67817739999737,,,,,,,,,,,,,,,,,,,,,,,,,,,,,,,,,,,,,,,,,,,,,,,,,,,,,,,,,,,,,,,sub102,percept,1,0,2024-08-07_10h04.40.264,ASRT_percept,2023.2.3,143.29562749524547,2024-08-07 10h05.03.085331 +0800,
,1,90,2,2,red,sequences/sub102_practice_sequence_00.csv,,,,,,,,,,,0,0,0,0,0,1,1,41,,,,,,,,,,,,,,,,,,,,,194.68498789999285,,,,,,,,,,,,,194.67876239999896,194.68498789999285,194.68498789999285,194.8868089000025,195.36797989999468,2,1,0.6758988999936264,None,195.36871679998876,195.37564749999729,195.37564749999729,195.58063969999785,195.789205699999,195.78263139999763,195.7826655999961,195.789205699999,,196.4841868999938,,,,,,,,,,,,,,,,,,,,,,,,,,,,,,,,,,,,,,,,,,,,,,,,,,,,,,,,,,,,,,,sub102,percept,1,0,2024-08-07_10h04.40.264,ASRT_percept,2023.2.3,143.29562749524547,2024-08-07 10h05.03.085331 +0800,
,3,270,0,4,red,sequences/sub102_practice_sequence_00.csv,,,,,,,,,,,0,0,0,0,0,2,2,59,,,,,,,,,,,,,,,,,,,,,196.4924941999925,,,,,,,,,,,,,196.4848603999999,196.4924941999925,196.4924941999925,196.692266500002,197.09644929999195,4,1,0.5994375000009313,None,197.0970304999937,197.1020911999949,197.1020911999949,197.3106948999921,197.5179688999924,197.51310379999632,197.51322919999075,197.5179688999924,,198.21350499999244,,,,,,,,,,,,,,,,,,,,,,,,,,,,,,,,,,,,,,,,,,,,,,,,,,,,,,,,,,,,,,,sub102,percept,1,0,2024-08-07_10h04.40.264,ASRT_percept,2023.2.3,143.29562749524547,2024-08-07 10h05.03.085331 +0800,
,0,0,1,3,red,sequences/sub102_practice_sequence_00.csv,,,,,,,,,,,0,0,0,0,0,3,3,53,,,,,,,,,,,,,,,,,,,,,198.22333849999995,,,,,,,,,,,,,198.2143342999916,198.22333849999995,198.22333849999995,198.4278653999936,198.7527465999883,3,1,0.5217243999941275,None,198.75407629999972,198.76187029998982,198.76187029998982,198.96264230000088,199.1705670999945,199.1654303999967,199.16546849999577,199.1705670999945,,199.86579879999044,,,,,,,,,,,,,,,,,,,,,,,,,,,,,,,,,,,,,,,,,,,,,,,,,,,,,,,,,,,,,,,sub102,percept,1,0,2024-08-07_10h04.40.264,ASRT_percept,2023.2.3,143.29562749524547,2024-08-07 10h05.03.085331 +0800,
,3,270,0,4,red,sequences/sub102_practice_sequence_00.csv,,,,,,,,,,,0,0,0,0,0,4,4,51,,,,,,,,,,,,,,,,,,,,,199.87300289999985,,,,,,,,,,,,,199.8665103999956,199.87300289999985,199.87300289999985,200.07389559999865,200.54878969999845,4,1,0.6690694999997504,None,200.54955789999804,200.55665990000125,200.55665990000125,200.76101049999124,200.96928679999837,200.96319779999612,200.96322859999782,200.96928679999837,,201.66420199999993,,,,,,,,,,,,,,,,,,,,,,,,,,,,,,,,,,,,,,,,,,,,,,,,,,,,,,,,,,,,,,,sub102,percept,1,0,2024-08-07_10h04.40.264,ASRT_percept,2023.2.3,143.29562749524547,2024-08-07 10h05.03.085331 +0800,
,0,0,1,3,red,sequences/sub102_practice_sequence_00.csv,,,,,,,,,,,0,0,0,0,0,5,5,20,,,,,,,,,,,,,,,,,,,,,201.67075659999682,,,,,,,,,,,,,201.66478700000152,201.67075659999682,201.67075659999682,201.87240349999047,202.2087676999945,3,1,0.5348472000041511,None,202.20955369999865,202.21679890000087,202.21679890000087,202.4209312000021,202.62903689999075,202.62346489999618,202.62350689999585,202.62903689999075,,203.32407129999774,,,,,,,,,,,,,,,,,,,,,,,,,,,,,,,,,,,,,,,,,,,,,,,,,,,,,,,,,,,,,,,sub102,percept,1,0,2024-08-07_10h04.40.264,ASRT_percept,2023.2.3,143.29562749524547,2024-08-07 10h05.03.085331 +0800,
,3,270,0,4,red,sequences/sub102_practice_sequence_00.csv,,,,,,,,,,,0,0,0,0,0,6,6,37,,,,,,,,,,,,,,,,,,,,,203.33096389999264,,,,,,,,,,,,,203.32474250000087,203.33096389999264,203.33096389999264,203.5322385999898,203.96380430000136,4,1,0.625342899991665,None,203.96433059999254,203.97002519998932,203.97002519998932,204.17775719999918,204.38584190000256,204.38047249999363,204.38051160000032,204.38584190000256,,205.08089539999492,,,,,,,,,,,,,,,,,,,,,,,,,,,,,,,,,,,,,,,,,,,,,,,,,,,,,,,,,,,,,,,sub102,percept,1,0,2024-08-07_10h04.40.264,ASRT_percept,2023.2.3,143.29562749524547,2024-08-07 10h05.03.085331 +0800,
,0,0,1,3,red,sequences/sub102_practice_sequence_00.csv,,,,,,,,,,,0,0,0,0,0,7,7,57,,,,,,,,,,,,,,,,,,,,,205.0882469999924,,,,,,,,,,,,,205.08150279999245,205.0882469999924,205.0882469999924,205.28856979998818,205.68009259999963,3,1,0.5888968000072055,None,205.68071279999276,205.6865539999999,205.6865539999999,205.8932177999959,206.10073359998933,206.0957395000005,206.09580809999898,206.10073359998933,,206.79626219999045,,,,,,,,,,,,,,,,,,,,,,,,,,,,,,,,,,,,,,,,,,,,,,,,,,,,,,,,,,,,,,,sub102,percept,1,0,2024-08-07_10h04.40.264,ASRT_percept,2023.2.3,143.29562749524547,2024-08-07 10h05.03.085331 +0800,
,0,0,1,3,red,sequences/sub102_practice_sequence_00.csv,,,,,,,,,,,0,0,0,0,0,8,8,36,,,,,,,,,,,,,,,,,,,,,206.80230019999726,,,,,,,,,,,,,206.79693559999578,206.80230019999726,206.80230019999726,207.00386179999623,207.36773800000083,3,1,0.5598810000083176,None,207.36840009999287,207.37503850000212,207.37503850000212,207.58055449998938,207.7886676999915,207.78307839999616,207.78311239999312,207.7886676999915,,208.48388089999207,,,,,,,,,,,,,,,,,,,,,,,,,,,,,,,,,,,,,,,,,,,,,,,,,,,,,,,,,,,,,,,sub102,percept,1,0,2024-08-07_10h04.40.264,ASRT_percept,2023.2.3,143.29562749524547,2024-08-07 10h05.03.085331 +0800,
,2,180,3,1,red,sequences/sub102_practice_sequence_00.csv,,,,,,,,,,,0,0,0,0,0,9,9,4,,,,,,,,,,,,,,,,,,,,,208.49040599999717,,,,,,,,,,,,,208.48451399999612,208.49040599999717,208.49040599999717,208.69155609999143,208.97249379999994,2,0,0.47961309998936485,None,208.97300739999628,208.98387250000087,208.98387250000087,209.1846826999972,209.3930318999919,209.38700899999822,209.38705859999754,209.3930318999919,,210.08815339999273,,,,,,,,,,,,,,,,,,,,,,,,,,,,,,,,,,,,,,,,,,,,,,,,,,,,,,,,,,,,,,,sub102,percept,1,0,2024-08-07_10h04.40.264,ASRT_percept,2023.2.3,143.29562749524547,2024-08-07 10h05.03.085331 +0800,
,2,180,3,1,red,sequences/sub102_practice_sequence_00.csv,,,,,,,,,,,0,0,0,0,0,10,10,60,,,,,,,,,,,,,,,,,,,,,210.09503099998983,,,,,,,,,,,,,210.08886789999087,210.09503099998983,210.09503099998983,210.2956392999913,210.64585459999216,1,1,0.5470788000093307,None,210.64652919999207,210.65346970000246,210.65346970000246,210.85803379998833,211.06657549999363,211.06083930000023,211.06087539999862,211.06657549999363,211.76748199999565,211.7615044999984,,,,,,,,,,,,,,,,,,,,,,,,,,,,,,,,,,,,,,,,,,,,,,,,,,,,,,,,,,,,,,,sub102,percept,1,0,2024-08-07_10h04.40.264,ASRT_percept,2023.2.3,143.29562749524547,2024-08-07 10h05.03.085331 +0800,
,0,0,1,3,red,sequences/sub102_practice_sequence_00.csv,,,,,,,,,,,0,0,0,0,0,11,11,27,,,,,,,,,,,,,,,,,,,,,211.76748199999565,,,,,,,,,,,,,211.76199389999965,211.76748199999565,211.76748199999565,211.96901459999208,212.38109429999895,3,1,0.6085029999958351,None,212.38177429999632,212.3875251999998,212.3875251999998,212.59428769999067,212.80266879999544,212.79691340000136,212.79695360000187,212.80266879999544,213.5036948999914,213.49787169999036,,,,,,,,,,,,,,,,,,,,,,,,,,,,,,,,,,,,,,,,,,,,,,,,,,,,,,,,,,,,,,,sub102,percept,1,0,2024-08-07_10h04.40.264,ASRT_percept,2023.2.3,143.29562749524547,2024-08-07 10h05.03.085331 +0800,
,3,270,0,4,red,sequences/sub102_practice_sequence_00.csv,,,,,,,,,,,0,0,0,0,0,12,12,12,,,,,,,,,,,,,,,,,,,,,213.5036948999914,,,,,,,,,,,,,213.49847900000168,213.5036948999914,213.5036948999914,213.7052154999983,214.14498640000238,4,1,0.635571799997706,None,214.1456610999885,214.1519796999928,214.1519796999928,214.357714400001,214.56655479999608,214.56055399999605,214.5605929000012,214.56655479999608,,215.2613527999929,,,,,,,,,,,,,,,,,,,,,,,,,,,,,,,,,,,,,,,,,,,,,,,,,,,,,,,,,,,,,,,sub102,percept,1,0,2024-08-07_10h04.40.264,ASRT_percept,2023.2.3,143.29562749524547,2024-08-07 10h05.03.085331 +0800,
,3,270,0,4,red,sequences/sub102_practice_sequence_00.csv,,,,,,,,,,,0,0,0,0,0,13,13,45,,,,,,,,,,,,,,,,,,,,,215.26776259999315,,,,,,,,,,,,,215.2619127999933,215.26776259999315,215.26776259999315,215.46932779999042,215.7629803000018,4,1,0.48786620001192205,None,215.76363099999435,215.7698609999934,215.7698609999934,215.9760191999958,216.18434880000132,216.17838219999976,216.1784148000006,216.18434880000132,,216.87941769999452,,,,,,,,,,,,,,,,,,,,,,,,,,,,,,,,,,,,,,,,,,,,,,,,,,,,,,,,,,,,,,,sub102,percept,1,0,2024-08-07_10h04.40.264,ASRT_percept,2023.2.3,143.29562749524547,2024-08-07 10h05.03.085331 +0800,
,0,0,1,3,red,sequences/sub102_practice_sequence_00.csv,,,,,,,,,,,0,0,0,0,0,14,14,44,,,,,,,,,,,,,,,,,,,,,216.88747409998905,,,,,,,,,,,,,216.8802399999986,216.88747409998905,216.88747409998905,217.08673509999062,217.39431579998927,3,1,0.5019395999988774,None,217.39505979999376,217.40197459999763,217.40197459999763,217.6079039999895,217.8161140000011,217.8100573999982,217.81009210000047,217.8161140000011,,218.51129159999255,,,,,,,,,,,,,,,,,,,,,,,,,,,,,,,,,,,,,,,,,,,,,,,,,,,,,,,,,,,,,,,sub102,percept,1,0,2024-08-07_10h04.40.264,ASRT_percept,2023.2.3,143.29562749524547,2024-08-07 10h05.03.085331 +0800,
,0,0,1,3,red,sequences/sub102_practice_sequence_00.csv,,,,,,,,,,,0,0,0,0,0,15,15,76,,,,,,,,,,,,,,,,,,,,,218.52024009999877,,,,,,,,,,,,,218.5120792999951,218.52024009999877,218.52024009999877,218.71941479999805,219.05690409999806,3,1,0.5328976000018883,None,219.05782889999682,219.0670691999985,219.0670691999985,219.26794350000273,219.47589139999764,219.47001779999118,219.47005720000016,219.47589139999764,,220.17084949999116,,,,,,,,,,,,,,,,,,,,,,,,,,,,,,,,,,,,,,,,,,,,,,,,,,,,,,,,,,,,,,,sub102,percept,1,0,2024-08-07_10h04.40.264,ASRT_percept,2023.2.3,143.29562749524547,2024-08-07 10h05.03.085331 +0800,
,2,180,3,1,red,sequences/sub102_practice_sequence_00.csv,,,,,,,,,,,0,0,0,0,0,16,16,23,,,,,,,,,,,,,,,,,,,,,220.18061289998877,,,,,,,,,,,,,220.1718596999999,220.18061289998877,220.18061289998877,220.38597499999742,220.96634089999134,1,1,0.780603200008045,None,220.96707919999608,220.9743066999945,220.9743066999945,221.17733579999185,221.38605539999844,221.38018389999343,221.3802285999991,221.38605539999844,222.08667179998884,222.08024099998875,,,,,,,,,,,,,,,,,,,,,,,,,,,,,,,,,,,,,,,,,,,,,,,,,,,,,,,,,,,,,,,sub102,percept,1,0,2024-08-07_10h04.40.264,ASRT_percept,2023.2.3,143.29562749524547,2024-08-07 10h05.03.085331 +0800,
,3,270,0,4,red,sequences/sub102_practice_sequence_00.csv,,,,,,,,,,,0,0,0,0,0,17,17,63,,,,,,,,,,,,,,,,,,,,,222.08667179998884,,,,,,,,,,,,,222.08066510000208,222.08667179998884,222.08667179998884,222.28929489999427,222.58198899999843,4,1,0.49025830000755377,None,222.58256509999046,222.58763290000206,222.58763290000206,222.79530610000074,223.00351989999763,222.99782669999695,222.99786740000127,223.00351989999763,,223.69826849999663,,,,,,,,,,,,,,,,,,,,,,,,,,,,,,,,,,,,,,,,,,,,,,,,,,,,,,,,,,,,,,,sub102,percept,1,0,2024-08-07_10h04.40.264,ASRT_percept,2023.2.3,143.29562749524547,2024-08-07 10h05.03.085331 +0800,
,2,180,3,1,red,sequences/sub102_practice_sequence_00.csv,,,,,,,,,,,0,0,0,0,0,18,18,82,,,,,,,,,,,,,,,,,,,,,223.7048164000007,,,,,,,,,,,,,223.69902809998894,223.7048164000007,223.7048164000007,223.90647779998835,224.31191209999088,1,1,0.6026889000058873,None,224.31255799999053,224.31943409999076,224.31943409999076,224.52479219999805,224.73285889999534,224.7275307999953,224.7275837999914,224.73285889999534,225.43584559999,225.42851209999935,,,,,,,,,,,,,,,,,,,,,,,,,,,,,,,,,,,,,,,,,,,,,,,,,,,,,,,,,,,,,,,sub102,percept,1,0,2024-08-07_10h04.40.264,ASRT_percept,2023.2.3,143.29562749524547,2024-08-07 10h05.03.085331 +0800,
,0,0,1,3,red,sequences/sub102_practice_sequence_00.csv,,,,,,,,,,,0,0,0,0,0,19,19,2,,,,,,,,,,,,,,,,,,,,,225.43584559999,,,,,,,,,,,,,225.42912219998834,225.43584559999,225.43584559999,225.63573049999832,225.96330180000223,3,1,0.5214880999992602,None,225.96385679999366,225.97123239999928,225.97123239999928,226.1774405999895,226.3851757999946,226.37927849999687,226.37931439999375,226.3851757999946,,227.08012489999237,,,,,,,,,,,,,,,,,,,,,,,,,,,,,,,,,,,,,,,,,,,,,,,,,,,,,,,,,,,,,,,sub102,percept,1,0,2024-08-07_10h04.40.264,ASRT_percept,2023.2.3,143.29562749524547,2024-08-07 10h05.03.085331 +0800,
,2,180,3,1,red,sequences/sub102_practice_sequence_00.csv,,,,,,,,,,,0,0,0,0,0,20,20,10,,,,,,,,,,,,,,,,,,,,,227.08676629999536,,,,,,,,,,,,,227.0806523999927,227.08676629999536,227.08676629999536,227.28842469998926,227.6183627999999,1,1,0.5286478000052739,None,227.61901229999785,227.62706329999492,227.62706329999492,227.83011719999195,228.03861909999978,228.0322937000019,228.03233229999023,228.03861909999978,,228.732949799989,,,,,,,,,,,,,,,,,,,,,,,,,,,,,,,,,,,,,,,,,,,,,,,,,,,,,,,,,,,,,,,sub102,percept,1,0,2024-08-07_10h04.40.264,ASRT_percept,2023.2.3,143.29562749524547,2024-08-07 10h05.03.085331 +0800,
,0,0,1,3,red,sequences/sub102_practice_sequence_00.csv,,,,,,,,,,,0,0,0,0,0,21,21,15,,,,,,,,,,,,,,,,,,,,,228.7404996999976,,,,,,,,,,,,,228.7336260000011,228.7404996999976,228.7404996999976,228.94136679999065,229.21517379999568,3,1,0.47059120000631083,None,229.21597819999442,229.2235687999928,229.2235687999928,229.4270400999958,229.6353636999993,229.62940809999418,229.62944309999875,229.6353636999993,,230.3303397999989,,,,,,,,,,,,,,,,,,,,,,,,,,,,,,,,,,,,,,,,,,,,,,,,,,,,,,,,,,,,,,,sub102,percept,1,0,2024-08-07_10h04.40.264,ASRT_percept,2023.2.3,143.29562749524547,2024-08-07 10h05.03.085331 +0800,
,0,0,1,3,red,sequences/sub102_practice_sequence_00.csv,,,,,,,,,,,0,0,0,0,0,22,22,14,,,,,,,,,,,,,,,,,,,,,230.33682659998885,,,,,,,,,,,,,230.33093769999687,230.33682659998885,230.33682659998885,230.53797849999683,230.96410929999547,3,1,0.6213370999903418,None,230.9647968999925,230.97095439999248,230.97095439999248,231.17721829999937,231.3853572999942,231.37991730000067,231.37995849999425,231.3853572999942,,232.08035139999993,,,,,,,,,,,,,,,,,,,,,,,,,,,,,,,,,,,,,,,,,,,,,,,,,,,,,,,,,,,,,,,sub102,percept,1,0,2024-08-07_10h04.40.264,ASRT_percept,2023.2.3,143.29562749524547,2024-08-07 10h05.03.085331 +0800,
,3,270,0,4,red,sequences/sub102_practice_sequence_00.csv,,,,,,,,,,,0,0,0,0,0,23,23,9,,,,,,,,,,,,,,,,,,,,,232.08663639999577,,,,,,,,,,,,,232.08098469999095,232.08663639999577,232.08663639999577,232.2887602999981,232.72725779999746,4,1,0.6339136000024155,None,232.72777269998915,232.7330474999908,232.7330474999908,232.94135179999284,233.14903859999322,233.14291939999384,233.1429475999903,233.14903859999322,,233.843959299993,,,,,,,,,,,,,,,,,,,,,,,,,,,,,,,,,,,,,,,,,,,,,,,,,,,,,,,,,,,,,,,sub102,percept,1,0,2024-08-07_10h04.40.264,ASRT_percept,2023.2.3,143.29562749524547,2024-08-07 10h05.03.085331 +0800,
,0,0,1,3,red,sequences/sub102_practice_sequence_00.csv,,,,,,,,,,,0,0,0,0,0,24,24,38,,,,,,,,,,,,,,,,,,,,,233.85054719999607,,,,,,,,,,,,,233.8445548000018,233.85054719999607,233.85054719999607,234.0519931000017,234.28450419999717,3,1,0.4308671000035247,None,234.28518419999455,234.29583550000098,234.29583550000098,234.49655159999384,234.70492869999725,234.6992220999964,234.69927430000098,234.70492869999725,,235.39964209999016,,,,,,,,,,,,,,,,,,,,,,,,,,,,,,,,,,,,,,,,,,,,,,,,,,,,,,,,,,,,,,,sub102,percept,1,0,2024-08-07_10h04.40.264,ASRT_percept,2023.2.3,143.29562749524547,2024-08-07 10h05.03.085331 +0800,
,2,180,3,1,red,sequences/sub102_practice_sequence_00.csv,,,,,,,,,,,0,0,0,0,0,25,25,30,,,,,,,,,,,,,,,,,,,,,235.40594849998888,,,,,,,,,,,,,235.40016949998972,235.40594849998888,235.40594849998888,235.6075254999887,235.96373269999458,1,1,0.5535108000040054,None,235.96447729998908,235.97148609999567,235.97148609999567,236.17677029999322,236.3855029999977,236.37964659999125,236.3796863000025,236.3855029999977,,237.0803758999973,,,,,,,,,,,,,,,,,,,,,,,,,,,,,,,,,,,,,,,,,,,,,,,,,,,,,,,,,,,,,,,sub102,percept,1,0,2024-08-07_10h04.40.264,ASRT_percept,2023.2.3,143.29562749524547,2024-08-07 10h05.03.085331 +0800,
,2,180,3,1,red,sequences/sub102_practice_sequence_00.csv,,,,,,,,,,,0,0,0,0,0,26,26,40,,,,,,,,,,,,,,,,,,,,,237.08733939999365,,,,,,,,,,,,,237.0809750999906,237.08733939999365,237.08733939999365,237.28807830000005,237.76913909999712,1,1,0.6774603000085335,None,237.76967209999566,237.77473079999618,237.77473079999618,237.98252890000003,238.19088100000226,238.18561059999047,238.18565169999783,238.19088100000226,238.8925673999911,238.8862814000022,,,,,,,,,,,,,,,,,,,,,,,,,,,,,,,,,,,,,,,,,,,,,,,,,,,,,,,,,,,,,,,sub102,percept,1,0,2024-08-07_10h04.40.264,ASRT_percept,2023.2.3,143.29562749524547,2024-08-07 10h05.03.085331 +0800,
,3,270,0,4,red,sequences/sub102_practice_sequence_00.csv,,,,,,,,,,,0,0,0,0,0,27,27,5,,,,,,,,,,,,,,,,,,,,,238.8925673999911,,,,,,,,,,,,,238.88687239999126,238.8925673999911,238.8925673999911,239.09343789999548,239.40176749999227,4,1,0.5057333000004292,None,239.40242549999675,239.40842579999298,239.40842579999298,239.61443669999426,239.8230751999945,239.81682579999324,239.8168660999945,239.8230751999945,,240.51708130000043,,,,,,,,,,,,,,,,,,,,,,,,,,,,,,,,,,,,,,,,,,,,,,,,,,,,,,,,,,,,,,,sub102,percept,1,0,2024-08-07_10h04.40.264,ASRT_percept,2023.2.3,143.29562749524547,2024-08-07 10h05.03.085331 +0800,
,2,180,3,1,red,sequences/sub102_practice_sequence_00.csv,,,,,,,,,,,0,0,0,0,0,28,28,56,,,,,,,,,,,,,,,,,,,,,240.52390669999295,,,,,,,,,,,,,240.51783839998825,240.52390669999295,240.52390669999295,240.72537879999436,241.02668809999886,1,1,0.4986676999978954,None,241.02724299998954,241.03290679999918,241.03290679999918,241.23910819999583,241.4481989999913,241.44225259999803,241.4422984999983,241.4481989999913,242.149084699995,242.1426644000021,,,,,,,,,,,,,,,,,,,,,,,,,,,,,,,,,,,,,,,,,,,,,,,,,,,,,,,,,,,,,,,sub102,percept,1,0,2024-08-07_10h04.40.264,ASRT_percept,2023.2.3,143.29562749524547,2024-08-07 10h05.03.085331 +0800,
,1,90,2,2,red,sequences/sub102_practice_sequence_00.csv,,,,,,,,,,,0,0,0,0,0,29,29,74,,,,,,,,,,,,,,,,,,,,,242.149084699995,,,,,,,,,,,,,242.14316130000225,242.149084699995,242.149084699995,242.35062469998957,242.92774810000265,2,1,0.7770896000001812,None,242.9280718999944,242.93318680000084,242.93318680000084,243.14243739999074,243.35032440000214,243.34406479999598,243.34409620000224,243.35032440000214,,244.04443509998964,,,,,,,,,,,,,,,,,,,,,,,,,,,,,,,,,,,,,,,,,,,,,,,,,,,,,,,,,,,,,,,sub102,percept,1,0,2024-08-07_10h04.40.264,ASRT_percept,2023.2.3,143.29562749524547,2024-08-07 10h05.03.085331 +0800,
,0,0,1,3,red,sequences/sub102_practice_sequence_00.csv,,,,,,,,,,,0,0,0,0,0,30,30,68,,,,,,,,,,,,,,,,,,,,,244.05203269999765,,,,,,,,,,,,,244.04469129999052,244.05203269999765,244.05203269999765,244.2536248999968,244.60779999999795,3,1,0.5444956999999704,None,244.60890009999275,244.61733529999037,244.61733529999037,244.81623379999655,245.02430989999266,245.01735299998836,245.01745230000233,245.02430989999266,,245.7194262999983,,,,,,,,,,,,,,,,,,,,,,,,,,,,,,,,,,,,,,,,,,,,,,,,,,,,,,,,,,,,,,,sub102,percept,1,0,2024-08-07_10h04.40.264,ASRT_percept,2023.2.3,143.29562749524547,2024-08-07 10h05.03.085331 +0800,
,2,180,3,1,red,sequences/sub102_practice_sequence_00.csv,,,,,,,,,,,0,0,0,0,0,31,31,6,,,,,,,,,,,,,,,,,,,,,245.72841489998973,,,,,,,,,,,,,245.72022689999721,245.72841489998973,245.72841489998973,245.93468629999552,246.1928246000025,1,1,0.45771840000816155,None,246.1934928999981,246.19865779999236,246.19865779999236,246.4056491999945,246.61456570000155,246.60854049999034,246.60860819999652,246.61456570000155,,247.31022349999694,,,,,,,,,,,,,,,,,,,,,,,,,,,,,,,,,,,,,,,,,,,,,,,,,,,,,,,,,,,,,,,sub102,percept,1,0,2024-08-07_10h04.40.264,ASRT_percept,2023.2.3,143.29562749524547,2024-08-07 10h05.03.085331 +0800,
,0,0,1,3,red,sequences/sub102_practice_sequence_00.csv,,,,,,,,,,,0,0,0,0,0,32,32,55,,,,,,,,,,,,,,,,,,,,,247.31643629999598,,,,,,,,,,,,,247.31119739999122,247.31643629999598,247.31643629999598,247.5175656999927,247.88423189999594,3,1,0.5632627999875695,None,247.88527169999725,247.89274899999145,247.89274899999145,248.0930126000021,248.30181789999187,248.29462570000032,248.29464249999728,248.30181789999187,,248.99683089999598,,,,,,,,,,,,,,,,,,,,,,,,,,,,,,,,,,,,,,,,,,,,,,,,,,,,,,,,,,,,,,,sub102,percept,1,0,2024-08-07_10h04.40.264,ASRT_percept,2023.2.3,143.29562749524547,2024-08-07 10h05.03.085331 +0800,
,1,90,2,2,red,sequences/sub102_practice_sequence_00.csv,,,,,,,,,,,0,0,0,0,0,33,33,83,,,,,,,,,,,,,,,,,,,,,249.00375379998877,,,,,,,,,,,,,248.99757969999337,249.00375379998877,249.00375379998877,249.20436019999033,249.5954051000008,2,1,0.5851801999961026,None,249.59603099999367,249.60131250000268,249.60131250000268,249.80886069999542,250.01745289999235,250.01102659999742,250.01106819999404,250.01745289999235,250.71789869999338,250.71136370000022,,,,,,,,,,,,,,,,,,,,,,,,,,,,,,,,,,,,,,,,,,,,,,,,,,,,,,,,,,,,,,,sub102,percept,1,0,2024-08-07_10h04.40.264,ASRT_percept,2023.2.3,143.29562749524547,2024-08-07 10h05.03.085331 +0800,
,2,180,3,1,red,sequences/sub102_practice_sequence_00.csv,,,,,,,,,,,0,0,0,0,0,34,34,22,,,,,,,,,,,,,,,,,,,,,250.71789869999338,,,,,,,,,,,,,250.71165060000203,250.71789869999338,250.71789869999338,250.91991830000188,251.11132429999998,1,1,0.38573120000364725,None,251.11229829999502,251.1200611999957,251.1200611999957,251.32263840000087,251.53084979999403,251.52525109999988,251.52529279999726,251.53084979999403,,252.22597469999164,,,,,,,,,,,,,,,,,,,,,,,,,,,,,,,,,,,,,,,,,,,,,,,,,,,,,,,,,,,,,,,sub102,percept,1,0,2024-08-07_10h04.40.264,ASRT_percept,2023.2.3,143.29562749524547,2024-08-07 10h05.03.085331 +0800,
,0,0,1,3,red,sequences/sub102_practice_sequence_00.csv,,,,,,,,,,,0,0,0,0,0,35,35,24,,,,,,,,,,,,,,,,,,,,,252.23408759999438,,,,,,,,,,,,,252.2267703999969,252.23408759999438,252.23408759999438,252.43383069999982,252.73465620000206,3,1,0.49589689999993425,None,252.7353648999997,252.74414579999575,252.74414579999575,252.94748560000153,253.1557538999914,253.14953729999252,253.1495719999948,253.1557538999914,,253.85052079999878,,,,,,,,,,,,,,,,,,,,,,,,,,,,,,,,,,,,,,,,,,,,,,,,,,,,,,,,,,,,,,,sub102,percept,1,0,2024-08-07_10h04.40.264,ASRT_percept,2023.2.3,143.29562749524547,2024-08-07 10h05.03.085331 +0800,
,2,180,3,1,red,sequences/sub102_practice_sequence_00.csv,,,,,,,,,,,0,0,0,0,0,36,36,1,,,,,,,,,,,,,,,,,,,,,253.8578118000005,,,,,,,,,,,,,253.85122549999505,253.8578118000005,253.8578118000005,254.058375099994,254.29748589999508,1,1,0.4316901999991387,None,254.29812669999956,254.30444929999067,254.30444929999067,254.50979820000066,254.7180659000005,254.7126974999992,254.712738000002,254.7180659000005,,255.4130531999981,,,,,,,,,,,,,,,,,,,,,,,,,,,,,,,,,,,,,,,,,,,,,,,,,,,,,,,,,,,,,,,sub102,percept,1,0,2024-08-07_10h04.40.264,ASRT_percept,2023.2.3,143.29562749524547,2024-08-07 10h05.03.085331 +0800,
,3,270,0,4,red,sequences/sub102_practice_sequence_00.csv,,,,,,,,,,,0,0,0,0,0,37,37,62,,,,,,,,,,,,,,,,,,,,,255.41967170000135,,,,,,,,,,,,,255.4137206000014,255.41967170000135,255.41967170000135,255.62099329999182,256.1229428999941,4,1,0.6977734000101918,None,256.1236857999902,256.12948979999055,256.12948979999055,256.3363806999987,256.54461099999025,256.5387841999909,256.53882429999067,256.54461099999025,,257.2393684999988,,,,,,,,,,,,,,,,,,,,,,,,,,,,,,,,,,,,,,,,,,,,,,,,,,,,,,,,,,,,,,,sub102,percept,1,0,2024-08-07_10h04.40.264,ASRT_percept,2023.2.3,143.29562749524547,2024-08-07 10h05.03.085331 +0800,
,3,270,0,4,red,sequences/sub102_practice_sequence_00.csv,,,,,,,,,,,0,0,0,0,0,38,38,33,,,,,,,,,,,,,,,,,,,,,257.2457989999966,,,,,,,,,,,,,257.24004859999695,257.2457989999966,257.2457989999966,257.447359400001,257.8249979999964,4,1,0.5726128999958746,None,257.82571879999887,257.8326890999888,257.8326890999888,258.0383001000009,258.24570829998993,258.24012180000136,258.2401594999974,258.24570829998993,,258.94052170000214,,,,,,,,,,,,,,,,,,,,,,,,,,,,,,,,,,,,,,,,,,,,,,,,,,,,,,,,,,,,,,,sub102,percept,1,0,2024-08-07_10h04.40.264,ASRT_percept,2023.2.3,143.29562749524547,2024-08-07 10h05.03.085331 +0800,
,3,270,0,4,red,sequences/sub102_practice_sequence_00.csv,,,,,,,,,,,0,0,0,0,0,39,39,42,,,,,,,,,,,,,,,,,,,,,258.9480043999938,,,,,,,,,,,,,258.94114249999984,258.9480043999938,258.9480043999938,259.14886869999464,259.5398478999996,4,1,0.5873651000001701,None,259.54052489998867,259.5468734999886,259.5468734999886,259.75289019999036,259.96154509999906,259.95517489999474,259.9552141999884,259.96154509999906,,260.6558250999951,,,,,,,,,,,,,,,,,,,,,,,,,,,,,,,,,,,,,,,,,,,,,,,,,,,,,,,,,,,,,,,sub102,percept,1,0,2024-08-07_10h04.40.264,ASRT_percept,2023.2.3,143.29562749524547,2024-08-07 10h05.03.085331 +0800,
,3,270,0,4,red,sequences/sub102_practice_sequence_00.csv,,,,,,,,,,,0,0,0,0,0,40,40,81,,,,,,,,,,,,,,,,,,,,,260.66246690000116,,,,,,,,,,,,,260.6564059999946,260.66246690000116,260.66246690000116,260.86428359999263,261.1657293999888,4,1,0.4979779999994207,None,261.1663283999951,261.1719274999923,261.1719274999923,261.37827749999997,261.5860069999908,261.5806026999926,261.58064669999294,261.5860069999908,,262.2809716999909,,,,,,,,,,,,,,,,,,,,,,,,,,,,,,,,,,,,,,,,,,,,,,,,,,,,,,,,,,,,,,,sub102,percept,1,0,2024-08-07_10h04.40.264,ASRT_percept,2023.2.3,143.29562749524547,2024-08-07 10h05.03.085331 +0800,
,2,180,3,1,red,sequences/sub102_practice_sequence_00.csv,,,,,,,,,,,0,0,0,0,0,41,41,25,,,,,,,,,,,,,,,,,,,,,262.28849939999054,,,,,,,,,,,,,262.281725599998,262.28849939999054,262.28849939999054,262.4893213999894,262.7969974000007,1,1,0.5041061999945669,None,262.79762259998824,262.803588499999,262.803588499999,263.0097817999922,263.21791789999406,263.2122282999917,263.2122634999978,263.21791789999406,,263.9126821999962,,,,,,,,,,,,,,,,,,,,,,,,,,,,,,,,,,,,,,,,,,,,,,,,,,,,,,,,,,,,,,,sub102,percept,1,0,2024-08-07_10h04.40.264,ASRT_percept,2023.2.3,143.29562749524547,2024-08-07 10h05.03.085331 +0800,
,0,0,1,3,red,sequences/sub102_practice_sequence_00.csv,,,,,,,,,,,0,0,0,0,0,42,42,79,,,,,,,,,,,,,,,,,,,,,263.91963179998857,,,,,,,,,,,,,263.91334949999873,263.91963179998857,263.91963179998857,264.12113990000216,264.4156051000027,3,1,0.4920105999917723,None,264.4163456999959,264.4236392999883,264.4236392999883,264.6276683999895,264.8361862999882,264.8303332999931,264.8303719999967,264.8361862999882,,265.53067579999333,,,,,,,,,,,,,,,,,,,,,,,,,,,,,,,,,,,,,,,,,,,,,,,,,,,,,,,,,,,,,,,sub102,percept,1,0,2024-08-07_10h04.40.264,ASRT_percept,2023.2.3,143.29562749524547,2024-08-07 10h05.03.085331 +0800,
,1,90,2,2,red,sequences/sub102_practice_sequence_00.csv,,,,,,,,,,,0,0,0,0,0,43,43,35,,,,,,,,,,,,,,,,,,,,,265.53879989999405,,,,,,,,,,,,,265.53160599998955,265.53879989999405,265.53879989999405,265.7388895999902,266.1712816999934,2,1,0.6259863000013866,None,266.1718399999954,266.176976799994,266.176976799994,266.38448169999174,266.59365339999204,266.5877302000008,266.58782119999523,266.59365339999204,267.29457299999194,267.28855450000265,,,,,,,,,,,,,,,,,,,,,,,,,,,,,,,,,,,,,,,,,,,,,,,,,,,,,,,,,,,,,,,sub102,percept,1,0,2024-08-07_10h04.40.264,ASRT_percept,2023.2.3,143.29562749524547,2024-08-07 10h05.03.085331 +0800,
,0,0,1,3,red,sequences/sub102_practice_sequence_00.csv,,,,,,,,,,,0,0,0,0,0,44,44,61,,,,,,,,,,,,,,,,,,,,,267.29457299999194,,,,,,,,,,,,,267.2893630999897,267.29457299999194,267.29457299999194,267.4960223999951,267.8309092999989,3,1,0.5294385000015609,None,267.8314536999969,267.8378717000014,267.8378717000014,268.044390199997,268.2525609000004,268.2474596999964,268.24749789999623,268.2525609000004,268.95504809998965,268.9480959999928,,,,,,,,,,,,,,,,,,,,,,,,,,,,,,,,,,,,,,,,,,,,,,,,,,,,,,,,,,,,,,,sub102,percept,1,0,2024-08-07_10h04.40.264,ASRT_percept,2023.2.3,143.29562749524547,2024-08-07 10h05.03.085331 +0800,
,3,270,0,4,red,sequences/sub102_practice_sequence_00.csv,,,,,,,,,,,0,0,0,0,0,45,45,67,,,,,,,,,,,,,,,,,,,,,268.95504809998965,,,,,,,,,,,,,268.9487618999992,268.95504809998965,268.95504809998965,269.15559660000145,269.6024546999979,4,1,0.6429207999899518,None,269.6031127999886,269.6099869999889,269.6099869999889,269.81483659999503,270.02373849999276,270.0174302999949,270.01746560000174,270.02373849999276,,270.71856119998847,,,,,,,,,,,,,,,,,,,,,,,,,,,,,,,,,,,,,,,,,,,,,,,,,,,,,,,,,,,,,,,sub102,percept,1,0,2024-08-07_10h04.40.264,ASRT_percept,2023.2.3,143.29562749524547,2024-08-07 10h05.03.085331 +0800,
,3,270,0,4,red,sequences/sub102_practice_sequence_00.csv,,,,,,,,,,,0,0,0,0,0,46,46,13,,,,,,,,,,,,,,,,,,,,,270.72600209999655,,,,,,,,,,,,,270.7194090999983,270.72600209999655,270.72600209999655,270.92676779998874,271.29172129998915,4,1,0.5560268999979598,None,271.2925022999989,271.30017529999895,271.30017529999895,271.5026000999933,271.71099039999535,271.7054394000006,271.70548459999554,271.71099039999535,,272.40675389999524,,,,,,,,,,,,,,,,,,,,,,,,,,,,,,,,,,,,,,,,,,,,,,,,,,,,,,,,,,,,,,,sub102,percept,1,0,2024-08-07_10h04.40.264,ASRT_percept,2023.2.3,143.29562749524547,2024-08-07 10h05.03.085331 +0800,
,3,270,0,4,red,sequences/sub102_practice_sequence_00.csv,,,,,,,,,,,0,0,0,0,0,47,47,26,,,,,,,,,,,,,,,,,,,,,272.4127002999885,,,,,,,,,,,,,272.40735359999235,272.4127002999885,272.4127002999885,272.61423320000176,272.9421697999933,4,1,0.5249555999907898,None,272.94285619999573,272.9487070999894,272.9487070999894,273.1550505999912,273.3635815000016,273.3576367999922,273.3576968999987,273.3635815000016,,274.05845240000053,,,,,,,,,,,,,,,,,,,,,,,,,,,,,,,,,,,,,,,,,,,,,,,,,,,,,,,,,,,,,,,sub102,percept,1,0,2024-08-07_10h04.40.264,ASRT_percept,2023.2.3,143.29562749524547,2024-08-07 10h05.03.085331 +0800,
,2,180,3,1,red,sequences/sub102_practice_sequence_00.csv,,,,,,,,,,,0,0,0,0,0,48,48,7,,,,,,,,,,,,,,,,,,,,,274.06483570000273,,,,,,,,,,,,,274.0590408999997,274.06483570000273,274.06483570000273,274.26605729998846,274.59493120000116,1,1,0.5263722999952734,None,274.5955627999938,274.60067659999186,274.60067659999186,274.80792649999785,275.01761989999795,275.0113824,275.01144619999104,275.01761989999795,275.71853649998957,275.71182079998835,,,,,,,,,,,,,,,,,,,,,,,,,,,,,,,,,,,,,,,,,,,,,,,,,,,,,,,,,,,,,,,sub102,percept,1,0,2024-08-07_10h04.40.264,ASRT_percept,2023.2.3,143.29562749524547,2024-08-07 10h05.03.085331 +0800,
,2,180,3,1,red,sequences/sub102_practice_sequence_00.csv,,,,,,,,,,,0,0,0,0,0,49,49,69,,,,,,,,,,,,,,,,,,,,,275.71853649998957,,,,,,,,,,,,,275.7125396999909,275.71853649998957,275.71853649998957,275.91923990000214,276.23383179999655,1,1,0.5091123000020161,None,276.23454689999926,276.2437610999914,276.2437610999914,276.44682729999477,276.6552331999992,276.64946749999945,276.6495061000023,276.6552331999992,,277.3503764999914,,,,,,,,,,,,,,,,,,,,,,,,,,,,,,,,,,,,,,,,,,,,,,,,,,,,,,,,,,,,,,,sub102,percept,1,0,2024-08-07_10h04.40.264,ASRT_percept,2023.2.3,143.29562749524547,2024-08-07 10h05.03.085331 +0800,
,3,270,0,4,red,sequences/sub102_practice_sequence_00.csv,,,,,,,,,,,0,0,0,0,0,50,50,73,,,,,,,,,,,,,,,,,,,,,277.35672159999376,,,,,,,,,,,,,277.35107360000256,277.35672159999376,277.35672159999376,277.5578839999944,277.92721609999717,4,1,0.5632194999925559,None,277.92813669999305,277.9341163999925,277.9341163999925,278.1412745999987,278.34972919999564,278.3443286999973,278.3443813999911,278.34972919999564,,279.04481769999256,,,,,,,,,,,,,,,,,,,,,,,,,,,,,,,,,,,,,,,,,,,,,,,,,,,,,,,,,,,,,,,sub102,percept,1,0,2024-08-07_10h04.40.264,ASRT_percept,2023.2.3,143.29562749524547,2024-08-07 10h05.03.085331 +0800,
,3,270,0,4,red,sequences/sub102_practice_sequence_00.csv,,,,,,,,,,,0,0,0,0,0,51,51,84,,,,,,,,,,,,,,,,,,,,,279.0516537999938,,,,,,,,,,,,,279.0457191000023,279.0516537999938,279.0516537999938,279.25231569999596,279.67825379999704,4,1,0.6229975000023842,None,279.6790362999891,279.6869027999928,279.6869027999928,279.8912977,280.0999118999898,280.0936401999934,280.0936823999946,280.0999118999898,,280.79468589999306,,,,,,,,,,,,,,,,,,,,,,,,,,,,,,,,,,,,,,,,,,,,,,,,,,,,,,,,,,,,,,,sub102,percept,1,0,2024-08-07_10h04.40.264,ASRT_percept,2023.2.3,143.29562749524547,2024-08-07 10h05.03.085331 +0800,
,3,270,0,4,red,sequences/sub102_practice_sequence_00.csv,,,,,,,,,,,0,0,0,0,0,52,52,18,,,,,,,,,,,,,,,,,,,,,280.80158149999625,,,,,,,,,,,,,280.795414799999,280.80158149999625,280.80158149999625,281.0021401999984,281.3097970999952,4,1,0.5027263999945717,None,281.31035529999644,281.31483869999647,281.31483869999647,281.52305829999386,281.7315030999889,281.72563999998965,281.7257096999965,281.7315030999889,,282.4262442999898,,,,,,,,,,,,,,,,,,,,,,,,,,,,,,,,,,,,,,,,,,,,,,,,,,,,,,,,,,,,,,,sub102,percept,1,0,2024-08-07_10h04.40.264,ASRT_percept,2023.2.3,143.29562749524547,2024-08-07 10h05.03.085331 +0800,
,1,90,2,2,red,sequences/sub102_practice_sequence_00.csv,,,,,,,,,,,0,0,0,0,0,53,53,16,,,,,,,,,,,,,,,,,,,,,282.43283879999944,,,,,,,,,,,,,282.4268638999929,282.43283879999944,282.43283879999944,282.6345197999908,283.23351369999,2,1,0.7967012999870349,None,283.2342043999961,283.24184059999243,283.24184059999243,283.447016399994,283.65525219999836,283.6492725999997,283.649310599998,283.65525219999836,,284.3498169999948,,,,,,,,,,,,,,,,,,,,,,,,,,,,,,,,,,,,,,,,,,,,,,,,,,,,,,,,,,,,,,,sub102,percept,1,0,2024-08-07_10h04.40.264,ASRT_percept,2023.2.3,143.29562749524547,2024-08-07 10h05.03.085331 +0800,
,3,270,0,4,red,sequences/sub102_practice_sequence_00.csv,,,,,,,,,,,0,0,0,0,0,54,54,54,,,,,,,,,,,,,,,,,,,,,284.3564277999976,,,,,,,,,,,,,284.35048759999336,284.3564277999976,284.3564277999976,284.5580417000019,284.8936953999946,4,1,0.5346088000078453,None,284.89435829999275,284.90037609999126,284.90037609999126,285.10635839999304,285.3148092999909,285.3089667000022,285.3090128999902,285.3148092999909,,286.009573599993,,,,,,,,,,,,,,,,,,,,,,,,,,,,,,,,,,,,,,,,,,,,,,,,,,,,,,,,,,,,,,,sub102,percept,1,0,2024-08-07_10h04.40.264,ASRT_percept,2023.2.3,143.29562749524547,2024-08-07 10h05.03.085331 +0800,
,0,0,1,3,red,sequences/sub102_practice_sequence_00.csv,,,,,,,,,,,0,0,0,0,0,55,55,11,,,,,,,,,,,,,,,,,,,,,286.01590469999064,,,,,,,,,,,,,286.01023459999124,286.01590469999064,286.01590469999064,286.2176629000023,286.47023429999535,3,1,0.4509057999966899,None,286.4709525999933,286.4778296000004,286.4778296000004,286.683332399989,286.8911089999892,286.8853594999964,286.8854071999958,286.8911089999892,,287.5857311,,,,,,,,,,,,,,,,,,,,,,,,,,,,,,,,,,,,,,,,,,,,,,,,,,,,,,,,,,,,,,,sub102,percept,1,0,2024-08-07_10h04.40.264,ASRT_percept,2023.2.3,143.29562749524547,2024-08-07 10h05.03.085331 +0800,
,3,270,0,4,red,sequences/sub102_practice_sequence_00.csv,,,,,,,,,,,0,0,0,0,0,56,56,8,,,,,,,,,,,,,,,,,,,,,287.59219579999626,,,,,,,,,,,,,287.58628869999666,287.59219579999626,287.59219579999626,287.7939733999956,288.1912374999956,4,1,0.5947312000062084,None,288.19173859999864,288.1968837999884,288.1968837999884,288.4048998999933,288.6131747999898,288.6072667999979,288.60730319999857,288.6131747999898,,289.30831439999747,,,,,,,,,,,,,,,,,,,,,,,,,,,,,,,,,,,,,,,,,,,,,,,,,,,,,,,,,,,,,,,sub102,percept,1,0,2024-08-07_10h04.40.264,ASRT_percept,2023.2.3,143.29562749524547,2024-08-07 10h05.03.085331 +0800,
,2,180,3,1,red,sequences/sub102_practice_sequence_00.csv,,,,,,,,,,,0,0,0,0,0,57,57,80,,,,,,,,,,,,,,,,,,,,,289.314426500001,,,,,,,,,,,,,289.3091657999903,289.314426500001,289.314426500001,289.5164645999903,289.86543510000047,1,1,0.5428998999996111,None,289.86605489999056,289.87226089999604,289.87226089999604,290.0783824999962,290.28703019999375,290.28158489998896,290.28162709999015,290.28703019999375,,290.98175130000163,,,,,,,,,,,,,,,,,,,,,,,,,,,,,,,,,,,,,,,,,,,,,,,,,,,,,,,,,,,,,,,sub102,percept,1,0,2024-08-07_10h04.40.264,ASRT_percept,2023.2.3,143.29562749524547,2024-08-07 10h05.03.085331 +0800,
,0,0,1,3,red,sequences/sub102_practice_sequence_00.csv,,,,,,,,,,,0,0,0,0,0,58,58,19,,,,,,,,,,,,,,,,,,,,,290.98980139999185,,,,,,,,,,,,,290.98239409999223,290.98980139999185,290.98980139999185,291.1900317999971,291.5477269999974,3,1,0.5488882999925409,None,291.54839009999705,291.5546245000005,291.5546245000005,291.7593695999967,291.9675525999919,291.96193589999166,291.96198249999725,291.9675525999919,292.6684176999988,292.66262289999577,,,,,,,,,,,,,,,,,,,,,,,,,,,,,,,,,,,,,,,,,,,,,,,,,,,,,,,,,,,,,,,sub102,percept,1,0,2024-08-07_10h04.40.264,ASRT_percept,2023.2.3,143.29562749524547,2024-08-07 10h05.03.085331 +0800,
,0,0,1,3,red,sequences/sub102_practice_sequence_00.csv,,,,,,,,,,,0,0,0,0,0,59,59,3,,,,,,,,,,,,,,,,,,,,,292.6684176999988,,,,,,,,,,,,,292.66316989999905,292.6684176999988,292.6684176999988,292.8708112000022,293.1988283999963,3,1,0.5246709999919403,None,293.1995397999999,293.2073621000018,293.2073621000018,293.4120804999984,293.62009569999645,293.61445690000255,293.6145219000027,293.62009569999645,,294.3149466999894,,,,,,,,,,,,,,,,,,,,,,,,,,,,,,,,,,,,,,,,,,,,,,,,,,,,,,,,,,,,,,,sub102,percept,1,0,2024-08-07_10h04.40.264,ASRT_percept,2023.2.3,143.29562749524547,2024-08-07 10h05.03.085331 +0800,
,1,90,2,2,red,sequences/sub102_practice_sequence_00.csv,,,,,,,,,,,0,0,0,0,0,60,60,17,,,,,,,,,,,,,,,,,,,,,294.32147650000115,,,,,,,,,,,,,294.31550699999207,294.32147650000115,294.32147650000115,294.5233300999971,295.09432289999677,2,1,0.767307999994955,None,295.09497510000074,295.0999901999894,295.0999901999894,295.30765149999934,295.5163157999923,295.51044899999397,295.5104963999911,295.5163157999923,,296.2111595999886,,,,,,,,,,,,,,,,,,,,,,,,,,,,,,,,,,,,,,,,,,,,,,,,,,,,,,,,,,,,,,,sub102,percept,1,0,2024-08-07_10h04.40.264,ASRT_percept,2023.2.3,143.29562749524547,2024-08-07 10h05.03.085331 +0800,
,1,90,2,2,red,sequences/sub102_practice_sequence_00.csv,,,,,,,,,,,0,0,0,0,0,61,61,71,,,,,,,,,,,,,,,,,,,,,296.22103159999824,,,,,,,,,,,,,296.2119298999896,296.22103159999824,296.22103159999824,296.4260798999894,296.90733999999065,2,1,0.6796013999992283,None,296.90806539999903,296.9154916999978,296.9154916999978,297.1199984999985,297.33001079999667,297.3232100999885,297.3232627999969,297.33001079999667,298.0295394999994,298.02384419999726,,,,,,,,,,,,,,,,,,,,,,,,,,,,,,,,,,,,,,,,,,,,,,,,,,,,,,,,,,,,,,,sub102,percept,1,0,2024-08-07_10h04.40.264,ASRT_percept,2023.2.3,143.29562749524547,2024-08-07 10h05.03.085331 +0800,
,1,90,2,2,red,sequences/sub102_practice_sequence_00.csv,,,,,,,,,,,0,0,0,0,0,62,62,21,,,,,,,,,,,,,,,,,,,,,298.0295394999994,,,,,,,,,,,,,298.02446699999564,298.0295394999994,298.0295394999994,298.2315096999955,298.6299710000021,2,1,0.5976783000078285,None,298.6307419999939,298.6381954999961,298.6381954999961,298.8422900000005,299.0506172000023,299.04461269998865,299.04464619999635,299.0506172000023,,299.7458203999995,,,,,,,,,,,,,,,,,,,,,,,,,,,,,,,,,,,,,,,,,,,,,,,,,,,,,,,,,,,,,,,sub102,percept,1,0,2024-08-07_10h04.40.264,ASRT_percept,2023.2.3,143.29562749524547,2024-08-07 10h05.03.085331 +0800,
,0,0,1,3,red,sequences/sub102_practice_sequence_00.csv,,,,,,,,,,,0,0,0,0,0,63,63,50,,,,,,,,,,,,,,,,,,,,,299.75446830000146,,,,,,,,,,,,,299.74653540000145,299.75446830000146,299.75446830000146,299.96039989999554,300.2557325999951,3,1,0.49288890000025276,None,300.2565007999947,300.26383820000046,300.26383820000046,300.4670683000004,300.6753316999966,300.6703001999995,300.6703415999946,300.6753316999966,301.37789519999933,301.3712259000022,,,,,,,,,,,,,,,,,,,,,,,,,,,,,,,,,,,,,,,,,,,,,,,,,,,,,,,,,,,,,,,sub102,percept,1,0,2024-08-07_10h04.40.264,ASRT_percept,2023.2.3,143.29562749524547,2024-08-07 10h05.03.085331 +0800,
,1,90,2,2,red,sequences/sub102_practice_sequence_00.csv,,,,,,,,,,,0,0,0,0,0,64,64,49,,,,,,,,,,,,,,,,,,,,,301.37789519999933,,,,,,,,,,,,,301.3719670999999,301.37789519999933,301.37789519999933,301.5783872999891,302.03830339999695,2,1,0.6532673000037903,None,302.03888929999084,302.0454000999889,302.0454000999889,302.2520286999934,302.4600197999971,302.45432039999287,302.45435849999194,302.4600197999971,,303.1550078,,,,,,,,,,,,,,,,,,,,,,,,,,,,,,,,,,,,,,,,,,,,,,,,,,,,,,,,,,,,,,,sub102,percept,1,0,2024-08-07_10h04.40.264,ASRT_percept,2023.2.3,143.29562749524547,2024-08-07 10h05.03.085331 +0800,
,1,90,2,2,red,sequences/sub102_practice_sequence_00.csv,,,,,,,,,,,0,0,0,0,0,65,65,70,,,,,,,,,,,,,,,,,,,,,303.1616955999925,,,,,,,,,,,,,303.1556062000018,303.1616955999925,303.1616955999925,303.36338629999955,303.5541149999917,2,1,0.3892070000001695,None,303.55485770000087,303.562738099994,303.562738099994,303.765974199996,303.9737535000022,303.96849849999126,303.96854509999685,303.9737535000022,,304.6688303999981,,,,,,,,,,,,,,,,,,,,,,,,,,,,,,,,,,,,,,,,,,,,,,,,,,,,,,,,,,,,,,,sub102,percept,1,0,2024-08-07_10h04.40.264,ASRT_percept,2023.2.3,143.29562749524547,2024-08-07 10h05.03.085331 +0800,
,3,270,0,4,red,sequences/sub102_practice_sequence_00.csv,,,,,,,,,,,0,0,0,0,0,66,66,46,,,,,,,,,,,,,,,,,,,,,304.6756822000025,,,,,,,,,,,,,304.6697286999988,304.6756822000025,304.6756822000025,304.8769479999901,305.42005529999733,4,1,0.7399944000062533,None,305.4206029999914,305.42656480000005,305.42656480000005,305.63385919999564,305.84204099999624,305.83641889999853,305.83645999999135,305.84204099999624,,306.5369536999933,,,,,,,,,,,,,,,,,,,,,,,,,,,,,,,,,,,,,,,,,,,,,,,,,,,,,,,,,,,,,,,sub102,percept,1,0,2024-08-07_10h04.40.264,ASRT_percept,2023.2.3,143.29562749524547,2024-08-07 10h05.03.085331 +0800,
,1,90,2,2,red,sequences/sub102_practice_sequence_00.csv,,,,,,,,,,,0,0,0,0,0,67,67,77,,,,,,,,,,,,,,,,,,,,,306.5442777999997,,,,,,,,,,,,,306.5376496999961,306.5442777999997,306.5442777999997,306.7447659999889,307.225557400001,2,1,0.6749796000076458,None,307.2261206999974,307.2323929999984,307.2323929999984,307.4396682999941,307.6477384999889,307.641630099999,307.6416678999958,307.6477384999889,,308.3424946000014,,,,,,,,,,,,,,,,,,,,,,,,,,,,,,,,,,,,,,,,,,,,,,,,,,,,,,,,,,,,,,,sub102,percept,1,0,2024-08-07_10h04.40.264,ASRT_percept,2023.2.3,143.29562749524547,2024-08-07 10h05.03.085331 +0800,
,2,180,3,1,red,sequences/sub102_practice_sequence_00.csv,,,,,,,,,,,0,0,0,0,0,68,68,48,,,,,,,,,,,,,,,,,,,,,308.34880089999933,,,,,,,,,,,,,308.3430718000018,308.34880089999933,308.34880089999933,308.5500611999887,308.8103594999993,1,1,0.45930410000437405,None,308.81086289999075,308.8173483999999,308.8173483999999,309.02285189999384,309.230808399996,309.2250039999926,309.2250378000026,309.230808399996,,309.9256943999935,,,,,,,,,,,,,,,,,,,,,,,,,,,,,,,,,,,,,,,,,,,,,,,,,,,,,,,,,,,,,,,sub102,percept,1,0,2024-08-07_10h04.40.264,ASRT_percept,2023.2.3,143.29562749524547,2024-08-07 10h05.03.085331 +0800,
,2,180,3,1,red,sequences/sub102_practice_sequence_00.csv,,,,,,,,,,,0,0,0,0,0,69,69,39,,,,,,,,,,,,,,,,,,,,,309.9325240999897,,,,,,,,,,,,,309.92625170000247,309.9325240999897,309.9325240999897,310.1335098999989,310.42690330000187,1,1,0.4927861999894958,None,310.4272518999933,310.43170180000016,310.43170180000016,310.6406704999972,310.84982459999446,310.8434382999985,310.84348650000175,310.84982459999446,311.5500563999958,311.5443966000021,,,,,,,,,,,,,,,,,,,,,,,,,,,,,,,,,,,,,,,,,,,,,,,,,,,,,,,,,,,,,,,sub102,percept,1,0,2024-08-07_10h04.40.264,ASRT_percept,2023.2.3,143.29562749524547,2024-08-07 10h05.03.085331 +0800,
,1,90,2,2,red,sequences/sub102_practice_sequence_00.csv,,,,,,,,,,,0,0,0,0,0,70,70,0,,,,,,,,,,,,,,,,,,,,,311.5500563999958,,,,,,,,,,,,,311.54497449999326,311.5500563999958,311.5500563999958,311.75211149999814,312.2124354999978,2,1,0.657450600003358,None,312.2131262999901,312.2206481999892,312.2206481999892,312.42472019999695,312.63359479999053,312.6276743999915,312.6277109999937,312.63359479999053,,313.3283483999985,,,,,,,,,,,,,,,,,,,,,,,,,,,,,,,,,,,,,,,,,,,,,,,,,,,,,,,,,,,,,,,sub102,percept,1,0,2024-08-07_10h04.40.264,ASRT_percept,2023.2.3,143.29562749524547,2024-08-07 10h05.03.085331 +0800,
,1,90,2,2,red,sequences/sub102_practice_sequence_00.csv,,,,,,,,,,,0,0,0,0,0,71,71,52,,,,,,,,,,,,,,,,,,,,,313.3347403999942,,,,,,,,,,,,,313.3290541999886,313.3347403999942,313.3347403999942,313.53648879998946,313.8654768999986,2,1,0.5224807000049623,None,313.8661920000013,313.8729677999945,313.8729677999945,314.07828789998894,314.28619849999086,314.2809369000024,314.28097290000005,314.28619849999086,,314.98115989999496,,,,,,,,,,,,,,,,,,,,,,,,,,,,,,,,,,,,,,,,,,,,,,,,,,,,,,,,,,,,,,,sub102,percept,1,0,2024-08-07_10h04.40.264,ASRT_percept,2023.2.3,143.29562749524547,2024-08-07 10h05.03.085331 +0800,
,0,0,1,3,red,sequences/sub102_practice_sequence_00.csv,,,,,,,,,,,0,0,0,0,0,72,72,65,,,,,,,,,,,,,,,,,,,,,314.98978199998965,,,,,,,,,,,,,314.98251499999606,314.98978199998965,314.98978199998965,315.19017869999516,315.4965322999924,3,1,0.4994157000037376,None,315.4971308999957,315.50244999999995,315.50244999999995,315.7097758000018,315.91878209999413,315.91223839999293,315.91229329998896,315.91878209999413,,316.6128597999923,,,,,,,,,,,,,,,,,,,,,,,,,,,,,,,,,,,,,,,,,,,,,,,,,,,,,,,,,,,,,,,sub102,percept,1,0,2024-08-07_10h04.40.264,ASRT_percept,2023.2.3,143.29562749524547,2024-08-07 10h05.03.085331 +0800,
,0,0,1,3,red,sequences/sub102_practice_sequence_00.csv,,,,,,,,,,,0,0,0,0,0,73,73,28,,,,,,,,,,,,,,,,,,,,,316.61945079998986,,,,,,,,,,,,,316.6134524999943,316.61945079998986,316.61945079998986,316.82138309998845,317.05952699999034,3,1,0.4347206000093138,None,317.0601916000014,317.06656239999575,317.06656239999575,317.27232679999724,317.48066590000235,317.4744759999885,317.474503999998,317.48066590000235,,318.17566239999724,,,,,,,,,,,,,,,,,,,,,,,,,,,,,,,,,,,,,,,,,,,,,,,,,,,,,,,,,,,,,,,sub102,percept,1,0,2024-08-07_10h04.40.264,ASRT_percept,2023.2.3,143.29562749524547,2024-08-07 10h05.03.085331 +0800,
