initial_random_seq_files,orientation_index,orientation_degrees,correct_answer_index,correct_answer_direction,arrow_color,practice_seq_files,learning_seq_files,percept_testing_seq_files,init_random_block.thisRepN,init_random_block.thisTrialN,init_random_block.thisN,init_random_block.thisIndex,init_random_trials.thisRepN,init_random_trials.thisTrialN,init_random_trials.thisN,init_random_trials.thisIndex,practice_blocks.thisRepN,practice_blocks.thisTrialN,practice_blocks.thisN,practice_blocks.thisIndex,practice_trials.thisRepN,practice_trials.thisTrialN,practice_trials.thisN,practice_trials.thisIndex,learning_trials.thisRepN,learning_trials.thisTrialN,learning_trials.thisN,learning_trials.thisIndex,learning_loop.thisRepN,learning_loop.thisTrialN,learning_loop.thisN,learning_loop.thisIndex,trials.thisRepN,trials.thisTrialN,trials.thisN,trials.thisIndex,percept_testing_trials.thisRepN,percept_testing_trials.thisTrialN,percept_testing_trials.thisN,percept_testing_trials.thisIndex,percept_testing_loop.thisRepN,percept_testing_loop.thisTrialN,percept_testing_loop.thisN,percept_testing_loop.thisIndex,thisRow.t,notes,welcomescreen.started,spaceship.started,welcometext.started,welcome_end.started,welcomescreen.stopped,welcome_end.keys,welcome_end.rt,welcome_end.duration,pre_section.started,fixation_init.started,pre_section.stopped,trial.started,arrowhead.started,key_resp.started,arrowhead.stopped,trial.stopped,key_resp.keys,key_resp.corr,key_resp.rt,key_resp.duration,fixation_feedback.started,cross.started,feedback_text.started,cross.stopped,feedback_text.stopped,fixation_feedback.stopped,RSI.started,text_2.started,RSI.stopped,text_2.stopped,post_section.started,feedback_post_section.started,key_resp_4.started,post_section.stopped,key_resp_4.keys,key_resp_4.rt,key_resp_4.duration,pratice_instruction.started,spaceship_rotated.started,rotation_instruction.started,key_resp_2.started,pratice_instruction.stopped,key_resp_2.keys,key_resp_2.rt,key_resp_2.duration,fixation_init.stopped,learning_instruction.started,spaceship_rotated01.started,rotation_instruction01.started,key_resp_02.started,learning_instruction.stopped,key_resp_02.keys,key_resp_02.rt,key_resp_02.duration,seqreport_instruction.started,seqreport_instruction_text.started,seqreport_instruction_key.started,seqreport_instruction_text.stopped,seqreport_instruction.stopped,seqreport_instruction_key.keys,seqreport_instruction_key.rt,seqreport_instruction_key.duration,seqreport.started,seq_report_key.started,seqreport.stopped,seq_report_key.keys,seq_report_key.rt,seq_report_key.duration,seqarrow.started,arrow_report.started,seqarrow.stopped,arrow_report.stopped,feedback_post_section.stopped,percept_testing_instruction.started,spaceship4.started,key_resp_5.started,percept_testing_instruction_text.started,percept_testing_instruction.stopped,key_resp_5.keys,key_resp_5.rt,key_resp_5.duration,fixation.started,cross_2.started,cross_2.stopped,fixation.stopped,thankyouscreen.started,text.started,key_resp_6.started,thankyouscreen.stopped,key_resp_6.keys,key_resp_6.rt,key_resp_6.duration,participant,learning_type,seqID,debug,date,expName,psychopyVersion,frameRate,
,,,,,,,,,,,,,,,,,,,,,,,,,,,,,,,,,,,,,,,,,,,,,,,0.00906239999949321,0.01898209999944811,0.01898209999944811,0.01898209999944811,26.879979399999684,space,26.855715700000474,None,,,,,,,,,,,,,,,,,,,,,,,,,,,,,,,,,,,,,,,,,,,,,,,,,,,,,,,,,,,,,,,,,,,,,,,,,,,,,,,,,,,,,test002,motor,3,0,2024-07-31_20h06.37.355,ASRT_percept,2023.2.3,142.30722707185168,
sequences/_initial_random.csv,0,0,0,4,red,,,,0,0,0,0,0,0,0,0,,,,,,,,,,,,,,,,,,,,,,,,,,,,,27.914011999999275,,,,,,,,,,26.909568000000036,26.918352299999242,27.885002499999246,27.91027539999959,27.914011999999275,27.914011999999275,28.11356099999921,28.45328689999951,4,1,0.5346767000000909,None,28.455587999999807,28.466657699999814,28.466657699999814,28.669035500000064,28.870734000000084,28.865322299999207,28.86540049999985,28.870734000000084,29.568763799999942,,,,,,,,,,,,,,,,,,,,,,,,,,,,,,,,,,,,,,,,,,,,,,,,,,,,,,,,,,,,,,,,test002,motor,3,0,2024-07-31_20h06.37.355,ASRT_percept,2023.2.3,142.30722707185168,
sequences/_initial_random.csv,0,0,0,4,red,,,,0,0,0,0,0,1,1,1,,,,,,,,,,,,,,,,,,,,,,,,,,,,,29.575061199999254,,,,,,,,,,,,,29.56999639999958,29.575061199999254,29.575061199999254,29.782442699999592,29.933493599999565,4,1,0.3512460000001738,None,29.935020899999472,29.943014999999832,29.943014999999832,30.155132500000036,30.364243299999544,30.3582736999997,30.358311399999366,30.364243299999544,31.058561499999996,31.065332599999238,,,,,,,,,,,,,,,,,,,,,,,,,,,,,,,,,,,,,,,,,,,,,,,,,,,,,,,,,,,,,,,test002,motor,3,0,2024-07-31_20h06.37.355,ASRT_percept,2023.2.3,142.30722707185168,
sequences/_initial_random.csv,2,180,2,2,red,,,,0,0,0,0,0,2,2,2,,,,,,,,,,,,,,,,,,,,,,,,,,,,,31.065332599999238,,,,,,,,,,,,,31.05888259999938,31.065332599999238,31.065332599999238,31.26798239999971,31.47568389999924,2,1,0.4077615000005608,None,31.475980100000015,31.48155979999956,31.48155979999956,31.68988469999931,31.89821749999919,31.891903799999454,31.89195380000001,31.89821749999919,32.59361369999988,,,,,,,,,,,,,,,,,,,,,,,,,,,,,,,,,,,,,,,,,,,,,,,,,,,,,,,,,,,,,,,,test002,motor,3,0,2024-07-31_20h06.37.355,ASRT_percept,2023.2.3,142.30722707185168,
sequences/_initial_random.csv,3,270,3,1,red,,,,0,0,0,0,0,3,3,3,,,,,,,,,,,,,,,,,,,,,,,,,,,,,32.60041219999948,,,,,,,,,,,,,32.59411109999928,32.60041219999948,32.60041219999948,32.80121079999935,32.97840999999971,1,1,0.3710760999992999,None,32.97965729999942,32.98935899999924,32.98935899999924,33.20740169999954,33.405658499999845,33.399477599999955,33.399528399999326,33.405658499999845,34.10020439999971,,,,,,,,,,,,,,,,,,,,,,,,,,,,,,,,,,,,,,,,,,,,,,,,,,,,,,,,,,,,,,,,test002,motor,3,0,2024-07-31_20h06.37.355,ASRT_percept,2023.2.3,142.30722707185168,
sequences/_initial_random.csv,2,180,2,2,red,,,,0,0,0,0,0,4,4,4,,,,,,,,,,,,,,,,,,,,,,,,,,,,,34.106401499999265,,,,,,,,,,,,,34.101025399999344,34.106401499999265,34.106401499999265,34.3086573999999,34.5553046999994,2,1,0.4427887000001647,None,34.55618449999929,34.56562579999991,34.56562579999991,34.76680089999991,34.97679789999984,34.97004459999971,34.97041369999988,34.97679789999984,35.67103009999937,35.675845099999606,,,,,,,,,,,,,,,,,,,,,,,,,,,,,,,,,,,,,,,,,,,,,,,,,,,,,,,,,,,,,,,test002,motor,3,0,2024-07-31_20h06.37.355,ASRT_percept,2023.2.3,142.30722707185168,
sequences/_initial_random.csv,0,0,0,4,red,,,,0,0,0,0,0,5,5,5,,,,,,,,,,,,,,,,,,,,,,,,,,,,,35.675845099999606,,,,,,,,,,,,,35.67156429999977,35.675845099999606,35.675845099999606,35.87732199999937,36.032113399999616,1,0,0.35039119999964896,None,36.03281789999983,36.0436667999993,36.0436667999993,36.24899749999986,36.45388969999931,36.44824410000001,36.448281099999804,36.45388969999931,37.14859290000004,,,,,,,,,,,,,,,,,,,,,,,,,,,,,,,,,,,,,,,,,,,,,,,,,,,,,,,,,,,,,,,,test002,motor,3,0,2024-07-31_20h06.37.355,ASRT_percept,2023.2.3,142.30722707185168,
sequences/_initial_random.csv,3,270,3,1,red,,,,0,0,0,0,0,6,6,6,,,,,,,,,,,,,,,,,,,,,,,,,,,,,37.15682319999996,,,,,,,,,,,,,37.14957129999948,37.15682319999996,37.15682319999996,37.35646550000001,37.58851669999967,1,1,0.42784759999995003,None,37.58896579999964,37.595701799999915,37.595701799999915,37.80123789999925,38.00915420000001,38.00314399999934,38.00318689999949,38.00915420000001,38.70588339999995,,,,,,,,,,,,,,,,,,,,,,,,,,,,,,,,,,,,,,,,,,,,,,,,,,,,,,,,,,,,,,,,test002,motor,3,0,2024-07-31_20h06.37.355,ASRT_percept,2023.2.3,142.30722707185168,
sequences/_initial_random.csv,2,180,2,2,red,,,,0,0,0,0,0,7,7,7,,,,,,,,,,,,,,,,,,,,,,,,,,,,,38.71189999999933,,,,,,,,,,,,,38.706355299999814,38.71189999999933,38.71189999999933,38.91191179999987,39.39891110000008,2,1,0.6811995999996725,None,39.40083770000001,39.412867999999435,39.412867999999435,39.63437989999966,39.849499099999775,39.84406390000004,39.84408649999932,39.849499099999775,40.5447065999997,,,,,,,,,,,,,,,,,,,,,,,,,,,,,,,,,,,,,,,,,,,,,,,,,,,,,,,,,,,,,,,,test002,motor,3,0,2024-07-31_20h06.37.355,ASRT_percept,2023.2.3,142.30722707185168,
sequences/_initial_random.csv,1,90,1,3,red,,,,0,0,0,0,0,8,8,8,,,,,,,,,,,,,,,,,,,,,,,,,,,,,40.55092969999987,,,,,,,,,,,,,40.545067899999594,40.55092969999987,40.55092969999987,40.75269810000009,40.962993899999674,3,1,0.40781540000079985,None,40.963610799999515,40.96800239999993,40.96800239999993,41.18408569999974,41.38965819999976,41.384004199999254,41.38411819999965,41.38965819999976,42.08577679999962,,,,,,,,,,,,,,,,,,,,,,,,,,,,,,,,,,,,,,,,,,,,,,,,,,,,,,,,,,,,,,,,test002,motor,3,0,2024-07-31_20h06.37.355,ASRT_percept,2023.2.3,142.30722707185168,
sequences/_initial_random.csv,1,90,1,3,red,,,,0,0,0,0,0,9,9,9,,,,,,,,,,,,,,,,,,,,,,,,,,,,,42.092253199999504,,,,,,,,,,,,,42.086082499999975,42.092253199999504,42.092253199999504,42.2939125999992,42.53887599999962,3,1,0.44031379999978526,None,42.53920789999938,42.546155,42.546155,42.755043499999374,42.97892109999975,42.973946899999646,42.97399369999948,42.97892109999975,43.67613849999998,,,,,,,,,,,,,,,,,,,,,,,,,,,,,,,,,,,,,,,,,,,,,,,,,,,,,,,,,,,,,,,,test002,motor,3,0,2024-07-31_20h06.37.355,ASRT_percept,2023.2.3,142.30722707185168,
sequences/_initial_random.csv,2,180,2,2,red,,,,0,0,0,0,0,10,10,10,,,,,,,,,,,,,,,,,,,,,,,,,,,,,43.68257839999933,,,,,,,,,,,,,43.67678869999963,43.68257839999933,43.68257839999933,43.88508619999993,44.108012299999245,2,1,0.4207689999993818,None,44.109410499999285,44.12126249999983,44.12126249999983,44.34990949999974,44.56018799999947,44.553490899999815,44.55357139999978,44.56018799999947,45.25932909999938,,,,,,,,,,,,,,,,,,,,,,,,,,,,,,,,,,,,,,,,,,,,,,,,,,,,,,,,,,,,,,,,test002,motor,3,0,2024-07-31_20h06.37.355,ASRT_percept,2023.2.3,142.30722707185168,
sequences/_initial_random.csv,1,90,1,3,red,,,,0,0,0,0,0,11,11,11,,,,,,,,,,,,,,,,,,,,,,,,,,,,,45.265856999999414,,,,,,,,,,,,,45.2598825999994,45.265856999999414,45.265856999999414,45.466019499999675,45.64464449999923,3,1,0.3765064999997776,None,45.64508019999994,45.648974499999895,45.648974499999895,45.89621319999969,46.092473199999404,46.08724019999954,46.087271399999736,46.092473199999404,46.7884897999993,46.799130200000036,,,,,,,,,,,,,,,,,,,,,,,,,,,,,,,,,,,,,,,,,,,,,,,,,,,,,,,,,,,,,,,test002,motor,3,0,2024-07-31_20h06.37.355,ASRT_percept,2023.2.3,142.30722707185168,
sequences/_initial_random.csv,1,90,1,3,red,,,,0,0,0,0,0,12,12,12,,,,,,,,,,,,,,,,,,,,,,,,,,,,,46.799130200000036,,,,,,,,,,,,,46.789637500000026,46.799130200000036,46.799130200000036,46.998391099999935,47.17512269999952,3,1,0.3662021999998615,None,47.17637739999918,47.18799390000004,47.18799390000004,47.40168629999971,47.593046299999514,47.58709279999948,47.58712269999978,47.593046299999514,48.288795199999186,,,,,,,,,,,,,,,,,,,,,,,,,,,,,,,,,,,,,,,,,,,,,,,,,,,,,,,,,,,,,,,,test002,motor,3,0,2024-07-31_20h06.37.355,ASRT_percept,2023.2.3,142.30722707185168,
sequences/_initial_random.csv,3,270,3,1,red,,,,0,0,0,0,0,13,13,13,,,,,,,,,,,,,,,,,,,,,,,,,,,,,48.293838999999934,,,,,,,,,,,,,48.28934519999984,48.293838999999934,48.293838999999934,48.4951188999994,48.73465199999919,1,1,0.43277240000043093,None,48.73546179999994,48.74399159999939,48.74399159999939,48.95369549999941,49.16193639999983,49.1568041999999,49.1568527999998,49.16193639999983,49.857839799999965,,,,,,,,,,,,,,,,,,,,,,,,,,,,,,,,,,,,,,,,,,,,,,,,,,,,,,,,,,,,,,,,test002,motor,3,0,2024-07-31_20h06.37.355,ASRT_percept,2023.2.3,142.30722707185168,
sequences/_initial_random.csv,1,90,1,3,red,,,,0,0,0,0,0,14,14,14,,,,,,,,,,,,,,,,,,,,,,,,,,,,,49.8662276999994,,,,,,,,,,,,,49.859166399999594,49.8662276999994,49.8662276999994,50.07210419999956,50.141778299999714,1,0,0.2723886000003404,None,50.14297549999992,50.156297799999265,50.156297799999265,50.35814059999939,50.5847834999995,50.578909299999395,50.57899449999968,50.5847834999995,51.280776499999774,51.28912319999927,,,,,,,,,,,,,,,,,,,,,,,,,,,,,,,,,,,,,,,,,,,,,,,,,,,,,,,,,,,,,,,test002,motor,3,0,2024-07-31_20h06.37.355,ASRT_percept,2023.2.3,142.30722707185168,
sequences/_initial_random.csv,2,180,2,2,red,,,,0,0,0,0,0,15,15,15,,,,,,,,,,,,,,,,,,,,,,,,,,,,,51.28912319999927,,,,,,,,,,,,,51.28234369999973,51.28912319999927,51.28912319999927,51.488844900000004,51.735049799999615,2,1,0.4439310000007026,None,51.735482999999476,51.74335559999963,51.74335559999963,51.960590599999705,52.1696751999998,52.1641953999997,52.16425359999994,52.1696751999998,52.87409260000004,,,,,,,,,,,,,,,,,,,,,,,,,,,,,,,,,,,,,,,,,,,,,,,,,,,,,,,,,,,,,,,,test002,motor,3,0,2024-07-31_20h06.37.355,ASRT_percept,2023.2.3,142.30722707185168,
sequences/_initial_random.csv,1,90,1,3,red,,,,0,0,0,0,0,16,16,16,,,,,,,,,,,,,,,,,,,,,,,,,,,,,52.88429459999952,,,,,,,,,,,,,52.875632100000075,52.88429459999952,52.88429459999952,53.08607249999932,53.25595639999938,3,1,0.3584698999993634,None,53.257297299999664,53.27257399999962,53.27257399999962,53.48850399999992,53.696660699999484,53.691362099999424,53.69139599999926,53.696660699999484,54.3936948999999,,,,,,,,,,,,,,,,,,,,,,,,,,,,,,,,,,,,,,,,,,,,,,,,,,,,,,,,,,,,,,,,test002,motor,3,0,2024-07-31_20h06.37.355,ASRT_percept,2023.2.3,142.30722707185168,
sequences/_initial_random.csv,3,270,3,1,red,,,,0,0,0,0,0,17,17,17,,,,,,,,,,,,,,,,,,,,,,,,,,,,,54.39915949999977,,,,,,,,,,,,,54.39439859999948,54.39915949999977,54.39915949999977,54.60009819999959,54.79916069999945,1,1,0.3956545000000915,None,54.80000829999972,54.80490709999958,54.80490709999958,55.01558939999995,55.23345859999972,55.22972219999974,55.22974559999966,55.23345859999972,55.92818889999944,55.9322618999995,,,,,,,,,,,,,,,,,,,,,,,,,,,,,,,,,,,,,,,,,,,,,,,,,,,,,,,,,,,,,,,test002,motor,3,0,2024-07-31_20h06.37.355,ASRT_percept,2023.2.3,142.30722707185168,
sequences/_initial_random.csv,2,180,2,2,red,,,,0,0,0,0,0,18,18,18,,,,,,,,,,,,,,,,,,,,,,,,,,,,,55.9322618999995,,,,,,,,,,,,,55.92849339999975,55.9322618999995,55.9322618999995,56.13324759999978,56.36616349999986,2,1,0.42815520000021934,None,56.366653099999894,56.37826330000007,56.37826330000007,56.57838569999967,56.802904399999534,56.79658560000007,56.79662129999997,56.802904399999534,57.502341599999454,,,,,,,,,,,,,,,,,,,,,,,,,,,,,,,,,,,,,,,,,,,,,,,,,,,,,,,,,,,,,,,,test002,motor,3,0,2024-07-31_20h06.37.355,ASRT_percept,2023.2.3,142.30722707185168,
sequences/_initial_random.csv,0,0,0,4,red,,,,0,0,0,0,0,19,19,19,,,,,,,,,,,,,,,,,,,,,,,,,,,,,57.51026569999976,,,,,,,,,,,,,57.50373259999924,57.51026569999976,57.51026569999976,57.711267799999405,57.89623779999965,4,1,0.3813266000006479,None,57.89698109999972,57.90437489999931,57.90437489999931,58.113166599999204,58.32214059999933,58.31568749999951,58.315714399999706,58.32214059999933,59.01608629999919,,,,,,,,,,,,,,,,,,,,,,,,,,,,,,,,,,,,,,,,,,,,,,,,,,,,,,,,,,,,,,,,test002,motor,3,0,2024-07-31_20h06.37.355,ASRT_percept,2023.2.3,142.30722707185168,
sequences/_initial_random.csv,0,0,0,4,red,,,,0,0,0,0,0,20,20,20,,,,,,,,,,,,,,,,,,,,,,,,,,,,,59.022649399999864,,,,,,,,,,,,,59.01644809999925,59.022649399999864,59.022649399999864,59.22078340000007,59.33790669999962,4,1,0.3109870999996929,None,59.33867989999999,59.34369799999968,59.34369799999968,59.56701919999978,59.77298029999929,59.76659259999997,59.76661909999984,59.77298029999929,60.46741359999942,,,,,,,,,,,,,,,,,,,,,,,,,,,,,,,,,,,,,,,,,,,,,,,,,,,,,,,,,,,,,,,,test002,motor,3,0,2024-07-31_20h06.37.355,ASRT_percept,2023.2.3,142.30722707185168,
sequences/_initial_random.csv,0,0,0,4,red,,,,0,0,0,0,0,21,21,21,,,,,,,,,,,,,,,,,,,,,,,,,,,,,60.47402559999955,,,,,,,,,,,,,60.46786819999943,60.47402559999955,60.47402559999955,60.677130000000034,60.873363799999424,4,1,0.3945512000000235,None,60.87416539999958,60.883039699999244,60.883039699999244,61.07858699999997,61.29222739999932,61.28389119999974,61.28394959999969,61.29222739999932,61.98864869999943,,,,,,,,,,,,,,,,,,,,,,,,,,,,,,,,,,,,,,,,,,,,,,,,,,,,,,,,,,,,,,,,test002,motor,3,0,2024-07-31_20h06.37.355,ASRT_percept,2023.2.3,142.30722707185168,
sequences/_initial_random.csv,2,180,2,2,red,,,,0,0,0,0,0,22,22,22,,,,,,,,,,,,,,,,,,,,,,,,,,,,,61.995015699999385,,,,,,,,,,,,,61.98898310000004,61.995015699999385,61.995015699999385,62.19656599999962,62.49158179999995,4,0,0.4886229999992793,None,62.492220799999814,62.50253629999952,62.50253629999952,62.70300169999973,62.911242299999685,62.90716279999924,62.907210999999734,62.911242299999685,63.607754299999215,63.6161247,,,,,,,,,,,,,,,,,,,,,,,,,,,,,,,,,,,,,,,,,,,,,,,,,,,,,,,,,,,,,,,test002,motor,3,0,2024-07-31_20h06.37.355,ASRT_percept,2023.2.3,142.30722707185168,
sequences/_initial_random.csv,2,180,2,2,red,,,,0,0,0,0,0,23,23,23,,,,,,,,,,,,,,,,,,,,,,,,,,,,,63.6161247,,,,,,,,,,,,,63.608592799999315,63.6161247,63.6161247,63.82161989999986,63.99917949999963,2,1,0.3768378999993729,None,64.00031809999928,64.00898139999936,64.00898139999936,64.20854549999967,64.41171379999923,64.40562369999952,64.40569809999943,64.41171379999923,65.10586519999924,,,,,,,,,,,,,,,,,,,,,,,,,,,,,,,,,,,,,,,,,,,,,,,,,,,,,,,,,,,,,,,,test002,motor,3,0,2024-07-31_20h06.37.355,ASRT_percept,2023.2.3,142.30722707185168,
sequences/_initial_random.csv,2,180,2,2,red,,,,0,0,0,0,0,24,24,24,,,,,,,,,,,,,,,,,,,,,,,,,,,,,65.11270019999938,,,,,,,,,,,,,65.10659140000007,65.11270019999938,65.11270019999938,65.31741340000008,65.47803489999933,2,1,0.3556408000004012,None,65.47906039999998,65.48802909999995,65.48802909999995,65.69590229999994,65.90428069999962,65.89943119999953,65.89949329999945,65.90428069999962,66.6009768999993,66.60716049999974,,,,,,,,,,,,,,,,,,,,,,,,,,,,,,,,,,,,,,,,,,,,,,,,,,,,,,,,,,,,,,,test002,motor,3,0,2024-07-31_20h06.37.355,ASRT_percept,2023.2.3,142.30722707185168,
sequences/_initial_random.csv,1,90,1,3,red,,,,0,0,0,0,0,25,25,25,,,,,,,,,,,,,,,,,,,,,,,,,,,,,66.60716049999974,,,,,,,,,,,,,66.6021155999997,66.60716049999974,66.60716049999974,66.8109156999999,67.01796999999988,3,1,0.40495430000009947,None,67.0185165999992,67.02900629999931,67.02900629999931,67.23088129999996,67.44338169999992,67.43647269999929,67.43650439999965,67.44338169999992,68.14597669999966,,,,,,,,,,,,,,,,,,,,,,,,,,,,,,,,,,,,,,,,,,,,,,,,,,,,,,,,,,,,,,,,test002,motor,3,0,2024-07-31_20h06.37.355,ASRT_percept,2023.2.3,142.30722707185168,
sequences/_initial_random.csv,0,0,0,4,red,,,,0,0,0,0,0,26,26,26,,,,,,,,,,,,,,,,,,,,,,,,,,,,,68.1589414,,,,,,,,,,,,,68.14714920000006,68.1589414,68.1589414,68.35476019999987,68.59393849999924,4,1,0.4277283000001262,None,68.5945243999995,68.59865629999967,68.59865629999967,68.80719999999928,69.01581859999988,69.01042779999989,69.01049129999956,69.01581859999988,69.71153539999978,,,,,,,,,,,,,,,,,,,,,,,,,,,,,,,,,,,,,,,,,,,,,,,,,,,,,,,,,,,,,,,,test002,motor,3,0,2024-07-31_20h06.37.355,ASRT_percept,2023.2.3,142.30722707185168,
sequences/_initial_random.csv,0,0,0,4,red,,,,0,0,0,0,0,27,27,27,,,,,,,,,,,,,,,,,,,,,,,,,,,,,69.71939239999938,,,,,,,,,,,,,69.71250749999945,69.71939239999938,69.71939239999938,69.92249039999933,70.01510899999994,4,1,0.2873380000000907,None,70.01632699999936,70.02454779999971,70.02454779999971,70.25182309999946,70.45115429999987,70.44359629999963,70.44367479999983,70.45115429999987,71.14970039999935,,,,,,,,,,,,,,,,,,,,,,,,,,,,,,,,,,,,,,,,,,,,,,,,,,,,,,,,,,,,,,,,test002,motor,3,0,2024-07-31_20h06.37.355,ASRT_percept,2023.2.3,142.30722707185168,
sequences/_initial_random.csv,1,90,1,3,red,,,,0,0,0,0,0,28,28,28,,,,,,,,,,,,,,,,,,,,,,,,,,,,,71.15477939999982,,,,,,,,,,,,,71.15011959999993,71.15477939999982,71.15477939999982,71.35610789999919,71.50003349999952,3,1,0.34209910000026866,None,71.50048339999921,71.50703079999948,71.50703079999948,71.72851219999939,71.92830499999945,71.91910619999999,71.91912709999997,71.92830499999945,72.62534919999962,,,,,,,,,,,,,,,,,,,,,,,,,,,,,,,,,,,,,,,,,,,,,,,,,,,,,,,,,,,,,,,,test002,motor,3,0,2024-07-31_20h06.37.355,ASRT_percept,2023.2.3,142.30722707185168,
sequences/_initial_random.csv,0,0,0,4,red,,,,0,0,0,0,0,29,29,29,,,,,,,,,,,,,,,,,,,,,,,,,,,,,72.63213279999945,,,,,,,,,,,,,72.62702949999948,72.63213279999945,72.63213279999945,72.83122049999929,73.01795459999994,3,0,0.3792587999996613,None,73.01860419999957,73.02666679999948,73.02666679999948,73.25337450000006,73.44827569999961,73.44406339999932,73.44408599999952,73.44827569999961,74.14249959999961,74.15021609999985,,,,,,,,,,,,,,,,,,,,,,,,,,,,,,,,,,,,,,,,,,,,,,,,,,,,,,,,,,,,,,,test002,motor,3,0,2024-07-31_20h06.37.355,ASRT_percept,2023.2.3,142.30722707185168,
sequences/_initial_random.csv,1,90,1,3,red,,,,0,0,0,0,0,30,30,30,,,,,,,,,,,,,,,,,,,,,,,,,,,,,74.15021609999985,,,,,,,,,,,,,74.14355239999986,74.15021609999985,74.15021609999985,74.35569429999941,74.52696089999972,3,1,0.3695776000004116,None,74.52755230000002,74.5374385999994,74.5374385999994,74.75860289999946,74.9693099999995,74.96142599999985,74.96147990000009,74.9693099999995,75.6644725999995,,,,,,,,,,,,,,,,,,,,,,,,,,,,,,,,,,,,,,,,,,,,,,,,,,,,,,,,,,,,,,,,test002,motor,3,0,2024-07-31_20h06.37.355,ASRT_percept,2023.2.3,142.30722707185168,
sequences/_initial_random.csv,2,180,2,2,red,,,,0,0,0,0,0,31,31,31,,,,,,,,,,,,,,,,,,,,,,,,,,,,,75.67153189999954,,,,,,,,,,,,,75.66504629999963,75.67153189999954,75.67153189999954,75.87020059999941,76.11856629999966,2,1,0.4421948999997767,None,76.11916699999983,76.12919749999946,76.12919749999946,76.35769209999944,76.55682049999996,76.55105179999919,76.55107249999946,76.55682049999996,77.25227579999955,77.25836699999945,,,,,,,,,,,,,,,,,,,,,,,,,,,,,,,,,,,,,,,,,,,,,,,,,,,,,,,,,,,,,,,test002,motor,3,0,2024-07-31_20h06.37.355,ASRT_percept,2023.2.3,142.30722707185168,
sequences/_initial_random.csv,2,180,2,2,red,,,,0,0,0,0,0,32,32,32,,,,,,,,,,,,,,,,,,,,,,,,,,,,,77.25836699999945,,,,,,,,,,,,,77.25314339999932,77.25836699999945,77.25836699999945,77.45974639999986,77.58683239999937,4,0,0.3234398999993573,None,77.58740080000007,77.59427349999987,77.59427349999987,77.80048269999952,78.00996729999952,78.00452679999944,78.0045928999998,78.00996729999952,78.70531069999925,78.70968319999974,,,,,,,,,,,,,,,,,,,,,,,,,,,,,,,,,,,,,,,,,,,,,,,,,,,,,,,,,,,,,,,test002,motor,3,0,2024-07-31_20h06.37.355,ASRT_percept,2023.2.3,142.30722707185168,
sequences/_initial_random.csv,3,270,3,1,red,,,,0,0,0,0,0,33,33,33,,,,,,,,,,,,,,,,,,,,,,,,,,,,,78.70968319999974,,,,,,,,,,,,,78.70603029999984,78.70968319999974,78.70968319999974,78.91202599999997,79.16925869999977,1,1,0.4450538000000961,None,79.17058209999959,79.18900849999955,79.18900849999955,79.3924520999999,79.59846579999976,79.59261829999923,79.59264259999964,79.59846579999976,80.29118169999947,80.29573079999955,,,,,,,,,,,,,,,,,,,,,,,,,,,,,,,,,,,,,,,,,,,,,,,,,,,,,,,,,,,,,,,test002,motor,3,0,2024-07-31_20h06.37.355,ASRT_percept,2023.2.3,142.30722707185168,
sequences/_initial_random.csv,3,270,3,1,red,,,,0,0,0,0,0,34,34,34,,,,,,,,,,,,,,,,,,,,,,,,,,,,,80.29573079999955,,,,,,,,,,,,,80.29153859999951,80.29573079999955,80.29573079999955,80.50175529999979,80.67206279999937,1,1,0.3659983999996257,None,80.67279969999981,80.67798829999992,80.67798829999992,80.86943269999938,81.07895239999925,81.0736395999993,81.07368509999924,81.07895239999925,81.77370719999999,81.7799587999998,,,,,,,,,,,,,,,,,,,,,,,,,,,,,,,,,,,,,,,,,,,,,,,,,,,,,,,,,,,,,,,test002,motor,3,0,2024-07-31_20h06.37.355,ASRT_percept,2023.2.3,142.30722707185168,
sequences/_initial_random.csv,0,0,0,4,red,,,,0,0,0,0,0,35,35,35,,,,,,,,,,,,,,,,,,,,,,,,,,,,,81.7799587999998,,,,,,,,,,,,,81.7742516999997,81.7799587999998,81.7799587999998,81.98066560000007,82.13770269999986,4,1,0.3526951999992889,None,82.13819559999956,82.1447494999993,82.1447494999993,82.3640263999996,82.5709883999998,82.5656197999997,82.56566079999993,82.5709883999998,83.26664349999919,,,,,,,,,,,,,,,,,,,,,,,,,,,,,,,,,,,,,,,,,,,,,,,,,,,,,,,,,,,,,,,,test002,motor,3,0,2024-07-31_20h06.37.355,ASRT_percept,2023.2.3,142.30722707185168,
sequences/_initial_random.csv,1,90,1,3,red,,,,0,0,0,0,0,36,36,36,,,,,,,,,,,,,,,,,,,,,,,,,,,,,83.27825029999985,,,,,,,,,,,,,83.26776639999935,83.27825029999985,83.27825029999985,83.48043189999953,83.63272939999933,3,1,0.33614480000051117,None,83.63467559999935,83.65097709999918,83.65097709999918,83.84919429999991,84.05681920000006,84.05104039999969,84.05109679999987,84.05681920000006,84.75167079999937,,,,,,,,,,,,,,,,,,,,,,,,,,,,,,,,,,,,,,,,,,,,,,,,,,,,,,,,,,,,,,,,test002,motor,3,0,2024-07-31_20h06.37.355,ASRT_percept,2023.2.3,142.30722707185168,
sequences/_initial_random.csv,1,90,1,3,red,,,,0,0,0,0,0,37,37,37,,,,,,,,,,,,,,,,,,,,,,,,,,,,,84.75854729999992,,,,,,,,,,,,,84.75224769999932,84.75854729999992,84.75854729999992,84.96538919999966,85.12455279999995,3,1,0.36159239999960846,None,85.12496620000002,85.13608229999954,85.13608229999954,85.33997,85.5428536999998,85.53957329999957,85.53959209999994,85.5428536999998,86.24117849999948,86.24977499999932,,,,,,,,,,,,,,,,,,,,,,,,,,,,,,,,,,,,,,,,,,,,,,,,,,,,,,,,,,,,,,,test002,motor,3,0,2024-07-31_20h06.37.355,ASRT_percept,2023.2.3,142.30722707185168,
sequences/_initial_random.csv,0,0,0,4,red,,,,0,0,0,0,0,38,38,38,,,,,,,,,,,,,,,,,,,,,,,,,,,,,86.24977499999932,,,,,,,,,,,,,86.24173599999995,86.24977499999932,86.24977499999932,86.4518094999994,86.61428049999995,4,1,0.355637999999999,None,86.61495620000005,86.62165709999954,86.62165709999954,86.82080999999926,87.02911289999975,87.02381629999945,87.02385909999975,87.02911289999975,87.72570459999952,87.7326951999994,,,,,,,,,,,,,,,,,,,,,,,,,,,,,,,,,,,,,,,,,,,,,,,,,,,,,,,,,,,,,,,test002,motor,3,0,2024-07-31_20h06.37.355,ASRT_percept,2023.2.3,142.30722707185168,
sequences/_initial_random.csv,0,0,0,4,red,,,,0,0,0,0,0,39,39,39,,,,,,,,,,,,,,,,,,,,,,,,,,,,,87.7326951999994,,,,,,,,,,,,,87.7269497999996,87.7326951999994,87.7326951999994,87.93504609999945,88.08220559999972,4,1,0.3421965999996246,None,88.08304079999925,88.08941329999925,88.08941329999925,88.29299489999994,88.50170389999948,88.49628279999979,88.49633339999946,88.50170389999948,89.19656439999926,89.20295369999985,,,,,,,,,,,,,,,,,,,,,,,,,,,,,,,,,,,,,,,,,,,,,,,,,,,,,,,,,,,,,,,test002,motor,3,0,2024-07-31_20h06.37.355,ASRT_percept,2023.2.3,142.30722707185168,
sequences/_initial_random.csv,1,90,1,3,red,,,,0,0,0,0,0,40,40,40,,,,,,,,,,,,,,,,,,,,,,,,,,,,,89.20295369999985,,,,,,,,,,,,,89.19701309999982,89.20295369999985,89.20295369999985,89.40708449999966,89.55691369999931,3,1,0.3374974000007569,None,89.55822189999981,89.5723866999997,89.5723866999997,89.7881953999995,89.99272459999975,89.98565469999994,89.98573029999989,89.99272459999975,90.69008669999948,,,,,,,,,,,,,,,,,,,,,,,,,,,,,,,,,,,,,,,,,,,,,,,,,,,,,,,,,,,,,,,,test002,motor,3,0,2024-07-31_20h06.37.355,ASRT_percept,2023.2.3,142.30722707185168,
sequences/_initial_random.csv,1,90,1,3,red,,,,0,0,0,0,0,41,41,41,,,,,,,,,,,,,,,,,,,,,,,,,,,,,90.7006449999999,,,,,,,,,,,,,90.69147019999946,90.7006449999999,90.7006449999999,90.90421100000003,91.0665728999993,3,1,0.35767870000017865,None,91.06701939999948,91.07356359999994,91.07356359999994,91.27971829999933,91.49479549999978,91.48285659999965,91.48293729999932,91.49479549999978,92.18540919999941,,,,,,,,,,,,,,,,,,,,,,,,,,,,,,,,,,,,,,,,,,,,,,,,,,,,,,,,,,,,,,,,test002,motor,3,0,2024-07-31_20h06.37.355,ASRT_percept,2023.2.3,142.30722707185168,
sequences/_initial_random.csv,3,270,3,1,red,,,,0,0,0,0,0,42,42,42,,,,,,,,,,,,,,,,,,,,,,,,,,,,,92.19252629999937,,,,,,,,,,,,,92.18621769999936,92.19252629999937,92.19252629999937,92.39561539999977,92.53468529999918,3,0,0.33381869999993796,None,92.53536039999926,92.54660799999965,92.54660799999965,92.74465779999991,92.95272789999945,92.94633840000006,92.94639370000004,92.95272789999945,93.6470690999995,,,,,,,,,,,,,,,,,,,,,,,,,,,,,,,,,,,,,,,,,,,,,,,,,,,,,,,,,,,,,,,,test002,motor,3,0,2024-07-31_20h06.37.355,ASRT_percept,2023.2.3,142.30722707185168,
sequences/_initial_random.csv,1,90,1,3,red,,,,0,0,0,0,0,43,43,43,,,,,,,,,,,,,,,,,,,,,,,,,,,,,93.65370319999965,,,,,,,,,,,,,93.64794889999939,93.65370319999965,93.65370319999965,93.85561179999968,93.98460279999927,3,1,0.3267732000003889,None,93.98493079999935,93.99230850000004,93.99230850000004,94.19617149999976,94.40503649999937,94.39907689999927,94.39911459999985,94.40503649999937,95.0994641999996,95.10822819999976,,,,,,,,,,,,,,,,,,,,,,,,,,,,,,,,,,,,,,,,,,,,,,,,,,,,,,,,,,,,,,,test002,motor,3,0,2024-07-31_20h06.37.355,ASRT_percept,2023.2.3,142.30722707185168,
sequences/_initial_random.csv,3,270,3,1,red,,,,0,0,0,0,0,44,44,44,,,,,,,,,,,,,,,,,,,,,,,,,,,,,95.10822819999976,,,,,,,,,,,,,95.10082759999932,95.10822819999976,95.10822819999976,95.3131186999999,95.50572099999954,1,1,0.3946385999997801,None,95.50625239999954,95.5138339999994,95.5138339999994,95.73002869999982,95.93817099999978,95.9330330999992,95.93307529999947,95.93817099999978,96.6331496999992,,,,,,,,,,,,,,,,,,,,,,,,,,,,,,,,,,,,,,,,,,,,,,,,,,,,,,,,,,,,,,,,test002,motor,3,0,2024-07-31_20h06.37.355,ASRT_percept,2023.2.3,142.30722707185168,
sequences/_initial_random.csv,2,180,2,2,red,,,,0,0,0,0,0,45,45,45,,,,,,,,,,,,,,,,,,,,,,,,,,,,,96.63995949999935,,,,,,,,,,,,,96.63423770000009,96.63995949999935,96.63995949999935,96.84225079999942,97.10141949999979,1,0,0.45479729999988194,None,97.10203909999927,97.10909079999965,97.10909079999965,97.31908339999973,97.52190559999963,97.51583699999992,97.5158864999994,97.52190559999963,98.21633119999933,,,,,,,,,,,,,,,,,,,,,,,,,,,,,,,,,,,,,,,,,,,,,,,,,,,,,,,,,,,,,,,,test002,motor,3,0,2024-07-31_20h06.37.355,ASRT_percept,2023.2.3,142.30722707185168,
sequences/_initial_random.csv,1,90,1,3,red,,,,0,0,0,0,0,46,46,46,,,,,,,,,,,,,,,,,,,,,,,,,,,,,98.22376199999962,,,,,,,,,,,,,98.21675639999921,98.22376199999962,98.22376199999962,98.43024019999939,98.68116959999952,3,1,0.45054499999969266,None,98.68294389999937,98.6930868999998,98.6930868999998,98.89100419999977,99.09945249999964,99.09383689999959,99.09394939999947,99.09945249999964,99.79418389999955,,,,,,,,,,,,,,,,,,,,,,,,,,,,,,,,,,,,,,,,,,,,,,,,,,,,,,,,,,,,,,,,test002,motor,3,0,2024-07-31_20h06.37.355,ASRT_percept,2023.2.3,142.30722707185168,
sequences/_initial_random.csv,0,0,0,4,red,,,,0,0,0,0,0,47,47,47,,,,,,,,,,,,,,,,,,,,,,,,,,,,,99.7993063999993,,,,,,,,,,,,,99.79457980000007,99.7993063999993,99.7993063999993,100.00104419999934,100.19907509999939,4,1,0.39235180000014225,None,100.20003319999978,100.20574409999972,100.20574409999972,100.41149649999988,100.61957239999992,100.61253279999983,100.61255059999985,100.61957239999992,101.32133429999976,,,,,,,,,,,,,,,,,,,,,,,,,,,,,,,,,,,,,,,,,,,,,,,,,,,,,,,,,,,,,,,,test002,motor,3,0,2024-07-31_20h06.37.355,ASRT_percept,2023.2.3,142.30722707185168,
sequences/_initial_random.csv,1,90,1,3,red,,,,0,0,0,0,0,48,48,48,,,,,,,,,,,,,,,,,,,,,,,,,,,,,101.32876409999972,,,,,,,,,,,,,101.32281989999956,101.32876409999972,101.32876409999972,101.52865079999992,101.71797869999955,3,1,0.38278730000001815,None,101.71922229999927,101.73085209999954,101.73085209999954,101.94638229999964,102.14656489999925,102.14184599999953,102.14192849999927,102.14656489999925,102.84299800000008,,,,,,,,,,,,,,,,,,,,,,,,,,,,,,,,,,,,,,,,,,,,,,,,,,,,,,,,,,,,,,,,test002,motor,3,0,2024-07-31_20h06.37.355,ASRT_percept,2023.2.3,142.30722707185168,
sequences/_initial_random.csv,2,180,2,2,red,,,,0,0,0,0,0,49,49,49,,,,,,,,,,,,,,,,,,,,,,,,,,,,,102.85716799999955,,,,,,,,,,,,,102.84424020000006,102.85716799999955,102.85716799999955,103.06181279999964,103.3633562999994,2,1,0.5008103000000119,None,103.36373819999972,103.36957009999969,103.36957009999969,103.57756249999966,103.78664159999971,103.78178729999945,103.78183910000007,103.78664159999971,104.48238339999989,,,,,,,,,,,,,,,,,,,,,,,,,,,,,,,,,,,,,,,,,,,,,,,,,,,,,,,,,,,,,,,,test002,motor,3,0,2024-07-31_20h06.37.355,ASRT_percept,2023.2.3,142.30722707185168,
sequences/_initial_random.csv,0,0,0,4,red,,,,0,0,0,0,0,50,50,50,,,,,,,,,,,,,,,,,,,,,,,,,,,,,104.49089469999944,,,,,,,,,,,,,104.4832693999997,104.49089469999944,104.49089469999944,104.69546759999957,104.87497409999924,4,1,0.3796823000002405,None,104.87546269999984,104.8848468999995,104.8848468999995,105.10237899999993,105.31333749999976,105.30613599999924,105.30621719999999,105.31333749999976,106.00755260000005,106.02497210000001,,,,,,,,,,,,,,,,,,,,,,,,,,,,,,,,,,,,,,,,,,,,,,,,,,,,,,,,,,,,,,,test002,motor,3,0,2024-07-31_20h06.37.355,ASRT_percept,2023.2.3,142.30722707185168,
sequences/_initial_random.csv,2,180,2,2,red,,,,0,0,0,0,0,51,51,51,,,,,,,,,,,,,,,,,,,,,,,,,,,,,106.02497210000001,,,,,,,,,,,,,106.00924450000002,106.02497210000001,106.02497210000001,106.2242938999998,106.47948999999971,2,1,0.44665729999996984,None,106.48113409999951,106.4887762999997,106.4887762999997,106.71575200000007,106.92447529999936,106.91830239999945,106.91832849999992,106.92447529999936,107.62491099999988,,,,,,,,,,,,,,,,,,,,,,,,,,,,,,,,,,,,,,,,,,,,,,,,,,,,,,,,,,,,,,,,test002,motor,3,0,2024-07-31_20h06.37.355,ASRT_percept,2023.2.3,142.30722707185168,
sequences/_initial_random.csv,2,180,2,2,red,,,,0,0,0,0,0,52,52,52,,,,,,,,,,,,,,,,,,,,,,,,,,,,,107.6412634999997,,,,,,,,,,,,,107.62681239999984,107.6412634999997,107.6412634999997,107.83994170000005,108.01812859999973,2,1,0.37049889999980223,None,108.01896709999983,108.02607059999991,108.02607059999991,108.22997339999984,108.43823239999983,108.43383089999952,108.43387449999955,108.43823239999983,109.13567749999947,,,,,,,,,,,,,,,,,,,,,,,,,,,,,,,,,,,,,,,,,,,,,,,,,,,,,,,,,,,,,,,,test002,motor,3,0,2024-07-31_20h06.37.355,ASRT_percept,2023.2.3,142.30722707185168,
sequences/_initial_random.csv,1,90,1,3,red,,,,0,0,0,0,0,53,53,53,,,,,,,,,,,,,,,,,,,,,,,,,,,,,109.14981199999966,,,,,,,,,,,,,109.13690279999992,109.14981199999966,109.14981199999966,109.3522411999993,109.60795859999962,3,1,0.45632389999991574,None,109.60836299999937,109.6129164999993,109.6129164999993,109.83767790000002,110.03547019999951,110.02945959999943,110.02949949999947,110.03547019999951,110.73049749999973,,,,,,,,,,,,,,,,,,,,,,,,,,,,,,,,,,,,,,,,,,,,,,,,,,,,,,,,,,,,,,,,test002,motor,3,0,2024-07-31_20h06.37.355,ASRT_percept,2023.2.3,142.30722707185168,
sequences/_initial_random.csv,1,90,1,3,red,,,,0,0,0,0,0,54,54,54,,,,,,,,,,,,,,,,,,,,,,,,,,,,,110.73915679999936,,,,,,,,,,,,,110.73172869999962,110.73915679999936,110.73915679999936,110.93862420000005,111.07556999999997,3,1,0.33183589999953256,None,111.07621719999952,111.08409119999942,111.08409119999942,111.29354019999937,111.50775129999965,111.49331139999958,111.4934177999994,111.50775129999965,112.19551239999964,,,,,,,,,,,,,,,,,,,,,,,,,,,,,,,,,,,,,,,,,,,,,,,,,,,,,,,,,,,,,,,,test002,motor,3,0,2024-07-31_20h06.37.355,ASRT_percept,2023.2.3,142.30722707185168,
sequences/_initial_random.csv,0,0,0,4,red,,,,0,0,0,0,0,55,55,55,,,,,,,,,,,,,,,,,,,,,,,,,,,,,112.20270199999959,,,,,,,,,,,,,112.19645820000005,112.20270199999959,112.20270199999959,112.40311769999971,112.67795179999939,3,0,0.459518399999979,None,112.67987979999998,112.69703229999959,112.69703229999959,112.90055339999981,113.09793719999925,113.0919899999999,113.09207199999946,113.09793719999925,113.79270539999925,,,,,,,,,,,,,,,,,,,,,,,,,,,,,,,,,,,,,,,,,,,,,,,,,,,,,,,,,,,,,,,,test002,motor,3,0,2024-07-31_20h06.37.355,ASRT_percept,2023.2.3,142.30722707185168,
sequences/_initial_random.csv,2,180,2,2,red,,,,0,0,0,0,0,56,56,56,,,,,,,,,,,,,,,,,,,,,,,,,,,,,113.79990539999926,,,,,,,,,,,,,113.79336569999941,113.79990539999926,113.79990539999926,113.99483479999981,114.20448609999949,2,1,0.3993444999996427,None,114.20509689999926,114.20883529999992,114.20883529999992,114.42177899999933,114.64059859999998,114.63552489999984,114.6355782999999,114.64059859999998,115.33542899999975,115.34241469999961,,,,,,,,,,,,,,,,,,,,,,,,,,,,,,,,,,,,,,,,,,,,,,,,,,,,,,,,,,,,,,,test002,motor,3,0,2024-07-31_20h06.37.355,ASRT_percept,2023.2.3,142.30722707185168,
sequences/_initial_random.csv,3,270,3,1,red,,,,0,0,0,0,0,57,57,57,,,,,,,,,,,,,,,,,,,,,,,,,,,,,115.34241469999961,,,,,,,,,,,,,115.33641089999946,115.34241469999961,115.34241469999961,115.54238649999934,115.69763899999998,2,0,0.35272919999988517,None,115.69809129999976,115.70675539999957,115.70675539999957,115.94689889999972,116.15633199999957,116.15382649999992,116.15388649999932,116.15633199999957,116.85489340000004,,,,,,,,,,,,,,,,,,,,,,,,,,,,,,,,,,,,,,,,,,,,,,,,,,,,,,,,,,,,,,,,test002,motor,3,0,2024-07-31_20h06.37.355,ASRT_percept,2023.2.3,142.30722707185168,
sequences/_initial_random.csv,1,90,1,3,red,,,,0,0,0,0,0,58,58,58,,,,,,,,,,,,,,,,,,,,,,,,,,,,,116.86548229999971,,,,,,,,,,,,,116.85597209999924,116.86548229999971,116.86548229999971,117.07041649999974,117.21285889999945,3,1,0.3401354000006904,None,117.21412959999998,117.21911739999996,117.21911739999996,117.41713649999929,117.62547240000004,117.62157359999946,117.62160589999985,117.62547240000004,118.32189769999968,118.32804499999929,,,,,,,,,,,,,,,,,,,,,,,,,,,,,,,,,,,,,,,,,,,,,,,,,,,,,,,,,,,,,,,test002,motor,3,0,2024-07-31_20h06.37.355,ASRT_percept,2023.2.3,142.30722707185168,
sequences/_initial_random.csv,3,270,3,1,red,,,,0,0,0,0,0,59,59,59,,,,,,,,,,,,,,,,,,,,,,,,,,,,,118.32804499999929,,,,,,,,,,,,,118.3231366,118.32804499999929,118.32804499999929,118.53000329999941,118.71928419999949,1,1,0.38168279999990773,None,118.72057949999999,118.72673739999937,118.72673739999937,118.93156579999959,119.14641519999986,119.14100269999926,119.14103729999988,119.14641519999986,119.84226779999972,,,,,,,,,,,,,,,,,,,,,,,,,,,,,,,,,,,,,,,,,,,,,,,,,,,,,,,,,,,,,,,,test002,motor,3,0,2024-07-31_20h06.37.355,ASRT_percept,2023.2.3,142.30722707185168,
sequences/_initial_random.csv,2,180,2,2,red,,,,0,0,0,0,0,60,60,60,,,,,,,,,,,,,,,,,,,,,,,,,,,,,119.85042059999978,,,,,,,,,,,,,119.84346259999984,119.85042059999978,119.85042059999978,120.0520248999992,120.26811389999966,2,1,0.41439360000003944,None,120.2686907999996,120.27709799999957,120.27709799999957,120.4838608,120.68813499999942,120.68293709999944,120.68297119999988,120.68813499999942,121.38463039999988,,,,,,,,,,,,,,,,,,,,,,,,,,,,,,,,,,,,,,,,,,,,,,,,,,,,,,,,,,,,,,,,test002,motor,3,0,2024-07-31_20h06.37.355,ASRT_percept,2023.2.3,142.30722707185168,
sequences/_initial_random.csv,2,180,2,2,red,,,,0,0,0,0,0,61,61,61,,,,,,,,,,,,,,,,,,,,,,,,,,,,,121.3921537999995,,,,,,,,,,,,,121.38514329999998,121.3921537999995,121.3921537999995,121.59778179999921,121.81546499999968,3,0,0.4202746999999363,None,121.81599339999957,121.82561749999968,121.82561749999968,122.02826209999967,122.2362949999997,122.23066429999926,122.23071619999973,122.2362949999997,122.93545489999997,,,,,,,,,,,,,,,,,,,,,,,,,,,,,,,,,,,,,,,,,,,,,,,,,,,,,,,,,,,,,,,,test002,motor,3,0,2024-07-31_20h06.37.355,ASRT_percept,2023.2.3,142.30722707185168,
sequences/_initial_random.csv,0,0,0,4,red,,,,0,0,0,0,0,62,62,62,,,,,,,,,,,,,,,,,,,,,,,,,,,,,122.94564599999921,,,,,,,,,,,,,122.9363186999999,122.94564599999921,122.94564599999921,123.1464148999994,123.31604729999981,4,1,0.3658614999994825,None,123.31685709999965,123.32360339999923,123.32360339999923,123.53565469999921,123.73651819999941,123.73125269999946,123.73130499999934,123.73651819999941,124.43277119999948,124.44081789999927,,,,,,,,,,,,,,,,,,,,,,,,,,,,,,,,,,,,,,,,,,,,,,,,,,,,,,,,,,,,,,,test002,motor,3,0,2024-07-31_20h06.37.355,ASRT_percept,2023.2.3,142.30722707185168,
sequences/_initial_random.csv,1,90,1,3,red,,,,0,0,0,0,0,63,63,63,,,,,,,,,,,,,,,,,,,,,,,,,,,,,124.44081789999927,,,,,,,,,,,,,124.43364029999975,124.44081789999927,124.44081789999927,124.64643669999987,124.7878525999995,3,1,0.34125590000076045,None,124.78834839999945,124.79250409999986,124.79250409999986,125.02012279999963,125.2226901999993,125.21867949999978,125.2187286999997,125.2226901999993,125.91872299999977,125.92400779999934,,,,,,,,,,,,,,,,,,,,,,,,,,,,,,,,,,,,,,,,,,,,,,,,,,,,,,,,,,,,,,,test002,motor,3,0,2024-07-31_20h06.37.355,ASRT_percept,2023.2.3,142.30722707185168,
sequences/_initial_random.csv,3,270,3,1,red,,,,0,0,0,0,0,64,64,64,,,,,,,,,,,,,,,,,,,,,,,,,,,,,125.92400779999934,,,,,,,,,,,,,125.91911809999965,125.92400779999934,125.92400779999934,126.13095969999995,126.35991269999977,1,1,0.4309772000005978,None,126.3619536999995,126.37268419999964,126.37268419999964,126.56939799999964,126.78142099999968,126.77716619999956,126.77719069999966,126.78142099999968,127.47980969999935,,,,,,,,,,,,,,,,,,,,,,,,,,,,,,,,,,,,,,,,,,,,,,,,,,,,,,,,,,,,,,,,test002,motor,3,0,2024-07-31_20h06.37.355,ASRT_percept,2023.2.3,142.30722707185168,
sequences/_initial_random.csv,0,0,0,4,red,,,,0,0,0,0,0,65,65,65,,,,,,,,,,,,,,,,,,,,,,,,,,,,,127.48749549999957,,,,,,,,,,,,,127.48021789999984,127.48749549999957,127.48749549999957,127.68818789999932,127.87981859999945,4,1,0.3852984999994078,None,127.88113840000005,127.89449379999951,127.89449379999951,128.10659319999922,128.3061349999998,128.30008029999954,128.30011269999977,128.3061349999998,129.0009612999993,,,,,,,,,,,,,,,,,,,,,,,,,,,,,,,,,,,,,,,,,,,,,,,,,,,,,,,,,,,,,,,,test002,motor,3,0,2024-07-31_20h06.37.355,ASRT_percept,2023.2.3,142.30722707185168,
sequences/_initial_random.csv,0,0,0,4,red,,,,0,0,0,0,0,66,66,66,,,,,,,,,,,,,,,,,,,,,,,,,,,,,129.00777969999945,,,,,,,,,,,,,129.00157679999938,129.00777969999945,129.00777969999945,129.20897309999964,129.37603679999938,4,1,0.36019779999969614,None,129.3772767999999,129.38446679999925,129.38446679999925,129.60434409999925,129.81912139999986,129.81446349999987,129.81453599999986,129.81912139999986,130.51738449999993,,,,,,,,,,,,,,,,,,,,,,,,,,,,,,,,,,,,,,,,,,,,,,,,,,,,,,,,,,,,,,,,test002,motor,3,0,2024-07-31_20h06.37.355,ASRT_percept,2023.2.3,142.30722707185168,
sequences/_initial_random.csv,1,90,1,3,red,,,,0,0,0,0,0,67,67,67,,,,,,,,,,,,,,,,,,,,,,,,,,,,,130.52555099999972,,,,,,,,,,,,,130.51790660000006,130.52555099999972,130.52555099999972,130.7239858999992,130.8713820999992,3,1,0.33915629999955854,None,130.87203969999973,130.87969209999937,130.87969209999937,131.08482749999985,131.29259329999968,131.2881215999996,131.2881496,131.29259329999968,131.98870279999937,,,,,,,,,,,,,,,,,,,,,,,,,,,,,,,,,,,,,,,,,,,,,,,,,,,,,,,,,,,,,,,,test002,motor,3,0,2024-07-31_20h06.37.355,ASRT_percept,2023.2.3,142.30722707185168,
sequences/_initial_random.csv,3,270,3,1,red,,,,0,0,0,0,0,68,68,68,,,,,,,,,,,,,,,,,,,,,,,,,,,,,131.9938906999996,,,,,,,,,,,,,131.98974109999926,131.9938906999996,131.9938906999996,132.19448629999988,132.4266390999992,1,1,0.4256913999997778,None,132.42778439999984,132.44281019999926,132.44281019999926,132.67399299999943,132.90743679999923,132.90029179999965,132.9003278,132.90743679999923,133.60747319999973,,,,,,,,,,,,,,,,,,,,,,,,,,,,,,,,,,,,,,,,,,,,,,,,,,,,,,,,,,,,,,,,test002,motor,3,0,2024-07-31_20h06.37.355,ASRT_percept,2023.2.3,142.30722707185168,
sequences/_initial_random.csv,0,0,0,4,red,,,,0,0,0,0,0,69,69,69,,,,,,,,,,,,,,,,,,,,,,,,,,,,,133.61457879999944,,,,,,,,,,,,,133.60819579999952,133.61457879999944,133.61457879999944,133.8109130999992,133.96622489999936,4,1,0.3398689999994531,None,133.96766320000006,133.9810138999992,133.9810138999992,134.19519859999946,134.40369419999934,134.39825519999977,134.39831629999935,134.40369419999934,135.09702509999988,135.10750019999978,,,,,,,,,,,,,,,,,,,,,,,,,,,,,,,,,,,,,,,,,,,,,,,,,,,,,,,,,,,,,,,test002,motor,3,0,2024-07-31_20h06.37.355,ASRT_percept,2023.2.3,142.30722707185168,
sequences/_initial_random.csv,1,90,1,3,red,,,,0,0,0,0,0,70,70,70,,,,,,,,,,,,,,,,,,,,,,,,,,,,,135.10750019999978,,,,,,,,,,,,,135.0984484999999,135.10750019999978,135.10750019999978,135.3125661999993,135.52623629999925,3,1,0.40846549999969284,None,135.52878929999952,135.53973029999997,135.53973029999997,135.7390433999999,135.94488199999978,135.9385069,135.9385427999996,135.94488199999978,136.64234829999987,,,,,,,,,,,,,,,,,,,,,,,,,,,,,,,,,,,,,,,,,,,,,,,,,,,,,,,,,,,,,,,,test002,motor,3,0,2024-07-31_20h06.37.355,ASRT_percept,2023.2.3,142.30722707185168,
sequences/_initial_random.csv,3,270,3,1,red,,,,0,0,0,0,0,71,71,71,,,,,,,,,,,,,,,,,,,,,,,,,,,,,136.65434109999933,,,,,,,,,,,,,136.64328169999953,136.65434109999933,136.65434109999933,136.85481449999952,137.05333059999975,1,1,0.39034170000013546,None,137.05465289999938,137.07179069999984,137.07179069999984,137.2710531999992,137.48149560000002,137.4770968999992,137.47712669999964,137.48149560000002,138.17466969999987,138.1806233999996,,,,,,,,,,,,,,,,,,,,,,,,,,,,,,,,,,,,,,,,,,,,,,,,,,,,,,,,,,,,,,,test002,motor,3,0,2024-07-31_20h06.37.355,ASRT_percept,2023.2.3,142.30722707185168,
sequences/_initial_random.csv,2,180,2,2,red,,,,0,0,0,0,0,72,72,72,,,,,,,,,,,,,,,,,,,,,,,,,,,,,138.1806233999996,,,,,,,,,,,,,138.17497430000003,138.1806233999996,138.1806233999996,138.3823485999992,138.6552025000001,4,0,0.46780539999963366,None,138.65563399999974,138.66361159999997,138.66361159999997,138.9101802999994,139.11802099999932,139.11497669999972,139.11501379999936,139.11802099999932,139.8150868999992,139.82344849999936,,,,,,,,,,,,,,,,,,,,,,,,,,,,,,,,,,,,,,,,,,,,,,,,,,,,,,,,,,,,,,,test002,motor,3,0,2024-07-31_20h06.37.355,ASRT_percept,2023.2.3,142.30722707185168,
sequences/_initial_random.csv,3,270,3,1,red,,,,0,0,0,0,0,73,73,73,,,,,,,,,,,,,,,,,,,,,,,,,,,,,139.82344849999936,,,,,,,,,,,,,139.81595409999954,139.82344849999936,139.82344849999936,140.02816660000008,140.17570249999972,1,1,0.34450549999928626,None,140.1772575999994,140.18629519999922,140.18629519999922,140.38174780000008,140.5900890999992,140.58410959999946,140.58413109999947,140.5900890999992,141.2858183999997,,,,,,,,,,,,,,,,,,,,,,,,,,,,,,,,,,,,,,,,,,,,,,,,,,,,,,,,,,,,,,,,test002,motor,3,0,2024-07-31_20h06.37.355,ASRT_percept,2023.2.3,142.30722707185168,
sequences/_initial_random.csv,2,180,2,2,red,,,,0,0,0,0,0,74,74,74,,,,,,,,,,,,,,,,,,,,,,,,,,,,,141.29427179999948,,,,,,,,,,,,,141.28661239999929,141.29427179999948,141.29427179999948,141.50013859999945,141.77886989999934,1,0,0.47546669999974256,None,141.78044039999986,141.79874179999933,141.79874179999933,141.99427359999936,142.20438789999935,142.19888179999998,142.19891449999977,142.20438789999935,142.90297629999986,,,,,,,,,,,,,,,,,,,,,,,,,,,,,,,,,,,,,,,,,,,,,,,,,,,,,,,,,,,,,,,,test002,motor,3,0,2024-07-31_20h06.37.355,ASRT_percept,2023.2.3,142.30722707185168,
sequences/_initial_random.csv,2,180,2,2,red,,,,0,0,0,0,0,75,75,75,,,,,,,,,,,,,,,,,,,,,,,,,,,,,142.91056649999973,,,,,,,,,,,,,142.9036817999995,142.91056649999973,142.91056649999973,143.1107745999998,143.30383959999926,1,0,0.38891200000034587,None,143.3044700999999,143.31204949999938,143.31204949999938,143.51362679999966,143.72343959999944,143.71699179999996,143.71703219999927,143.72343959999944,144.41736739999942,,,,,,,,,,,,,,,,,,,,,,,,,,,,,,,,,,,,,,,,,,,,,,,,,,,,,,,,,,,,,,,,test002,motor,3,0,2024-07-31_20h06.37.355,ASRT_percept,2023.2.3,142.30722707185168,
sequences/_initial_random.csv,2,180,2,2,red,,,,0,0,0,0,0,76,76,76,,,,,,,,,,,,,,,,,,,,,,,,,,,,,144.42336019999948,,,,,,,,,,,,,144.41802889999963,144.42336019999948,144.42336019999948,144.62516959999994,144.75459169999976,2,1,0.3260768000000098,None,144.75601740000002,144.76834739999958,144.76834739999958,144.97186770000008,145.1840384999996,145.17826220000006,145.1783034,145.1840384999996,145.8781442999998,145.8870883999998,,,,,,,,,,,,,,,,,,,,,,,,,,,,,,,,,,,,,,,,,,,,,,,,,,,,,,,,,,,,,,,test002,motor,3,0,2024-07-31_20h06.37.355,ASRT_percept,2023.2.3,142.30722707185168,
sequences/_initial_random.csv,1,90,1,3,red,,,,0,0,0,0,0,77,77,77,,,,,,,,,,,,,,,,,,,,,,,,,,,,,145.8870883999998,,,,,,,,,,,,,145.87908929999958,145.8870883999998,145.8870883999998,146.0923616,146.28047289999995,3,1,0.3854704999994283,None,146.2811388,146.29149739999957,146.29149739999957,146.4961298999997,146.71033110000008,146.70739409999987,146.70742319999954,146.71033110000008,147.40399549999984,147.4101351999998,,,,,,,,,,,,,,,,,,,,,,,,,,,,,,,,,,,,,,,,,,,,,,,,,,,,,,,,,,,,,,,test002,motor,3,0,2024-07-31_20h06.37.355,ASRT_percept,2023.2.3,142.30722707185168,
sequences/_initial_random.csv,1,90,1,3,red,,,,0,0,0,0,0,78,78,78,,,,,,,,,,,,,,,,,,,,,,,,,,,,,147.4101351999998,,,,,,,,,,,,,147.40457489999972,147.4101351999998,147.4101351999998,147.61172519999946,147.76776809999956,3,1,0.35474229999999807,None,147.76834109999982,147.77799529999993,147.77799529999993,147.97876629999973,148.20102309999947,148.19094309999946,148.19108979999965,148.20102309999947,148.89818379999997,,,,,,,,,,,,,,,,,,,,,,,,,,,,,,,,,,,,,,,,,,,,,,,,,,,,,,,,,,,,,,,,test002,motor,3,0,2024-07-31_20h06.37.355,ASRT_percept,2023.2.3,142.30722707185168,
sequences/_initial_random.csv,0,0,0,4,red,,,,0,0,0,0,0,79,79,79,,,,,,,,,,,,,,,,,,,,,,,,,,,,,148.9047241999997,,,,,,,,,,,,,148.89880429999994,148.9047241999997,148.9047241999997,149.10489119999966,149.25830169999972,4,1,0.34856440000021394,None,149.25921169999947,149.26309459999993,149.26309459999993,149.46532109999953,149.67349029999968,149.66772969999965,149.66777009999987,149.67349029999968,150.3685814999999,150.37738659999923,,,,,,,,,,,,,,,,,,,,,,,,,,,,,,,,,,,,,,,,,,,,,,,,,,,,,,,,,,,,,,,test002,motor,3,0,2024-07-31_20h06.37.355,ASRT_percept,2023.2.3,142.30722707185168,
sequences/_initial_random.csv,3,270,3,1,red,,,,0,0,0,0,0,80,80,80,,,,,,,,,,,,,,,,,,,,,,,,,,,,,150.37738659999923,,,,,,,,,,,,,150.36932239999987,150.37738659999923,150.37738659999923,150.58707379999942,150.75425019999966,1,1,0.36767299999974057,None,150.75490349999927,150.76695130000007,150.76695130000007,150.99217640000006,151.18776679999974,151.18387189999976,151.18389359999946,151.18776679999974,151.8841356999992,151.8962245999992,,,,,,,,,,,,,,,,,,,,,,,,,,,,,,,,,,,,,,,,,,,,,,,,,,,,,,,,,,,,,,,test002,motor,3,0,2024-07-31_20h06.37.355,ASRT_percept,2023.2.3,142.30722707185168,
sequences/_initial_random.csv,3,270,3,1,red,,,,0,0,0,0,0,81,81,81,,,,,,,,,,,,,,,,,,,,,,,,,,,,,151.8962245999992,,,,,,,,,,,,,151.8850595999993,151.8962245999992,151.8962245999992,152.0982699999995,152.41060560000005,4,0,0.5103810999999041,None,152.41102109999974,152.41653619999943,152.41653619999943,152.62499380000008,152.83352159999959,152.8269797999992,152.8270008999998,152.83352159999959,153.5283804999999,,,,,,,,,,,,,,,,,,,,,,,,,,,,,,,,,,,,,,,,,,,,,,,,,,,,,,,,,,,,,,,,test002,motor,3,0,2024-07-31_20h06.37.355,ASRT_percept,2023.2.3,142.30722707185168,
sequences/_initial_random.csv,0,0,0,4,red,,,,0,0,0,0,0,82,82,82,,,,,,,,,,,,,,,,,,,,,,,,,,,,,153.53490809999948,,,,,,,,,,,,,153.5290430999994,153.53490809999948,153.53490809999948,153.7357788999998,153.94835729999977,4,1,0.4063532000000123,None,153.94879429999946,153.95549799999935,153.95549799999935,154.16045779999968,154.36763999999948,154.36201839999922,154.36204689999977,154.36763999999948,155.0621618999994,,,,,,,,,,,,,,,,,,,,,,,,,,,,,,,,,,,,,,,,,,,,,,,,,,,,,,,,,,,,,,,,test002,motor,3,0,2024-07-31_20h06.37.355,ASRT_percept,2023.2.3,142.30722707185168,
sequences/_initial_random.csv,2,180,2,2,red,,,,0,0,0,0,0,83,83,83,,,,,,,,,,,,,,,,,,,,,,,,,,,,,155.06894499999999,,,,,,,,,,,,,155.06285709999975,155.06894499999999,155.06894499999999,155.27053439999963,155.48656969999956,1,0,0.41453999999976077,None,155.4872894,155.4933916,155.4933916,155.7014419999996,155.90924629999972,155.9034090999994,155.90347500000007,155.90924629999972,156.60529479999968,,,,,,,,,,,,,,,,,,,,,,,,,,,,,,,,,,,,,,,,,,,,,,,,,,,,,,,,,,,,,,,,test002,motor,3,0,2024-07-31_20h06.37.355,ASRT_percept,2023.2.3,142.30722707185168,
sequences/_initial_random.csv,3,270,3,1,red,,,,0,0,0,0,0,84,84,84,,,,,,,,,,,,,,,,,,,,,,,,,,,,,156.61079859999973,,,,,,,,,,,,,156.60592499999984,156.61079859999973,156.61079859999973,156.8120947999996,157.0876129999997,1,1,0.4734973999993599,None,157.08802859999923,157.0959245999993,157.0959245999993,157.29807170000004,157.51181109999925,157.50775019999946,157.5078257999994,157.51181109999925,158.2085438999993,,,,,,,,,,,,,,,,,,,,,,,,,,,,,,,,,,,,,,,,,,,,,,,,,,,,,,,,,,,,,,,,test002,motor,3,0,2024-07-31_20h06.37.355,ASRT_percept,2023.2.3,142.30722707185168,
,,,,,,,,,,,,,,,,,,,,,,,,,,,,,,,,,,,,,,,,,,,,,,,,,,,,,,,,,,,,,,,,,,,,,,,,,,,,,158.20876019999923,158.25226769999972,158.25226769999972,161.66898049999963,space,3.407918200000495,None,161.6710693999994,161.68035899999995,161.68035899999995,161.68035899999995,185.2241766999996,space,23.537893600000643,None,,,,,,,,,,,,,,,,,,,,,,,,,,,,,,,,,,,,,,,,,,,,,,,,test002,motor,3,0,2024-07-31_20h06.37.355,ASRT_percept,2023.2.3,142.30722707185168,
,3,270,0,4,red,sequences/_practice_sequence_00.csv,,,,,,,,,,,0,0,0,0,0,0,0,64,,,,,,,,,,,,,,,,,,,,,186.25129990000005,,,,,,,,,,185.24358069999926,185.2475201999996,186.22872539999935,186.2471405999995,186.25129990000005,186.25129990000005,186.45075459999953,186.57137710000006,1,0,0.3118868999999904,None,186.57228479999958,186.57893729999978,186.57893729999978,186.78417519999948,187.02221729999928,187.0140081999998,187.0141279999998,187.02221729999928,187.71704709999995,,,,,,,,,,,,,,,,,,,,,,,,,,,,,,,,,,,,,,,,,,,,,,,,,,,,,,,,,,,,,,,,test002,motor,3,0,2024-07-31_20h06.37.355,ASRT_percept,2023.2.3,142.30722707185168,
,2,180,3,1,red,sequences/_practice_sequence_00.csv,,,,,,,,,,,0,0,0,0,0,1,1,47,,,,,,,,,,,,,,,,,,,,,187.72905319999973,,,,,,,,,,,,,187.71829739999976,187.72905319999973,187.72905319999973,187.92939549999937,188.1789323999992,2,0,0.4428623999992851,None,188.18000719999964,188.19762009999977,188.19762009999977,188.42339679999986,188.63104870000006,188.6256825999999,188.62573649999922,188.63104870000006,189.32762999999977,,,,,,,,,,,,,,,,,,,,,,,,,,,,,,,,,,,,,,,,,,,,,,,,,,,,,,,,,,,,,,,,test002,motor,3,0,2024-07-31_20h06.37.355,ASRT_percept,2023.2.3,142.30722707185168,
,0,0,1,3,red,sequences/_practice_sequence_00.csv,,,,,,,,,,,0,0,0,0,0,2,2,11,,,,,,,,,,,,,,,,,,,,,189.33457819999967,,,,,,,,,,,,,189.3283066999993,189.33457819999967,189.33457819999967,189.53490759999931,189.74665099999947,3,1,0.4073189000000639,None,189.74768119999953,189.75692469999922,189.75692469999922,189.95758320000004,190.16651159999947,190.1626301999995,190.1626744999994,190.16651159999947,190.86375879999923,190.8762259999994,,,,,,,,,,,,,,,,,,,,,,,,,,,,,,,,,,,,,,,,,,,,,,,,,,,,,,,,,,,,,,,test002,motor,3,0,2024-07-31_20h06.37.355,ASRT_percept,2023.2.3,142.30722707185168,
,3,270,0,4,red,sequences/_practice_sequence_00.csv,,,,,,,,,,,0,0,0,0,0,3,3,78,,,,,,,,,,,,,,,,,,,,,190.8762259999994,,,,,,,,,,,,,190.86467469999934,190.8762259999994,190.8762259999994,191.07563389999996,191.33873330000006,4,1,0.4544270999995206,None,191.33971699999984,191.3471796999993,191.3471796999993,191.55717099999947,191.7555308000001,191.75037629999952,191.75041669999973,191.7555308000001,192.45239149999998,,,,,,,,,,,,,,,,,,,,,,,,,,,,,,,,,,,,,,,,,,,,,,,,,,,,,,,,,,,,,,,,test002,motor,3,0,2024-07-31_20h06.37.355,ASRT_percept,2023.2.3,142.30722707185168,
,1,90,2,2,red,sequences/_practice_sequence_00.csv,,,,,,,,,,,0,0,0,0,0,4,4,82,,,,,,,,,,,,,,,,,,,,,192.45697990000008,,,,,,,,,,,,,192.4536464999992,192.45697990000008,192.45697990000008,192.65317699999923,192.95423609999943,2,1,0.49290689999997994,None,192.95483689999946,192.96110079999926,192.96110079999926,193.17604439999923,193.38348719999976,193.38115229999948,193.38117239999974,193.38348719999976,194.08280569999988,,,,,,,,,,,,,,,,,,,,,,,,,,,,,,,,,,,,,,,,,,,,,,,,,,,,,,,,,,,,,,,,test002,motor,3,0,2024-07-31_20h06.37.355,ASRT_percept,2023.2.3,142.30722707185168,
,2,180,3,1,red,sequences/_practice_sequence_00.csv,,,,,,,,,,,0,0,0,0,0,5,5,22,,,,,,,,,,,,,,,,,,,,,194.08942799999932,,,,,,,,,,,,,194.08332509999946,194.08942799999932,194.08942799999932,194.29072499999984,194.48183269999936,1,1,0.38619740000012825,None,194.48296369999935,194.49700630000007,194.49700630000007,194.70047649999924,194.92341709999982,194.91776570000002,194.9177952,194.92341709999982,195.6184489999996,,,,,,,,,,,,,,,,,,,,,,,,,,,,,,,,,,,,,,,,,,,,,,,,,,,,,,,,,,,,,,,,test002,motor,3,0,2024-07-31_20h06.37.355,ASRT_percept,2023.2.3,142.30722707185168,
,2,180,3,1,red,sequences/_practice_sequence_00.csv,,,,,,,,,,,0,0,0,0,0,6,6,65,,,,,,,,,,,,,,,,,,,,,195.62891409999975,,,,,,,,,,,,,195.6194485999995,195.62891409999975,195.62891409999975,195.83317269999952,196.04782219999925,1,1,0.4113814000002094,None,196.04888319999918,196.05463119999968,196.05463119999968,196.26290160000008,196.47261639999942,196.46642209999936,196.46646409999994,196.47261639999942,197.16691459999947,197.17269489999944,,,,,,,,,,,,,,,,,,,,,,,,,,,,,,,,,,,,,,,,,,,,,,,,,,,,,,,,,,,,,,,test002,motor,3,0,2024-07-31_20h06.37.355,ASRT_percept,2023.2.3,142.30722707185168,
,1,90,2,2,red,sequences/_practice_sequence_00.csv,,,,,,,,,,,0,0,0,0,0,7,7,60,,,,,,,,,,,,,,,,,,,,,197.17269489999944,,,,,,,,,,,,,197.16722469999968,197.17269489999944,197.17269489999944,197.37458869999955,197.61558499999956,2,1,0.43847290000030625,None,197.61666530000002,197.62968679999994,197.62968679999994,197.8451673999998,198.05485689999932,198.04945279999993,198.0494804,198.05485689999932,198.74976489999972,198.75582209999993,,,,,,,,,,,,,,,,,,,,,,,,,,,,,,,,,,,,,,,,,,,,,,,,,,,,,,,,,,,,,,,test002,motor,3,0,2024-07-31_20h06.37.355,ASRT_percept,2023.2.3,142.30722707185168,
,2,180,3,1,red,sequences/_practice_sequence_00.csv,,,,,,,,,,,0,0,0,0,0,8,8,81,,,,,,,,,,,,,,,,,,,,,198.75582209999993,,,,,,,,,,,,,198.75028549999934,198.75582209999993,198.75582209999993,198.9537875999995,199.20918540000002,1,1,0.4516489999996338,None,199.2095707999997,199.2142699999995,199.2142699999995,199.4227654999995,199.63636019999922,199.6289345999994,199.62903689999985,199.63636019999922,200.33272390000002,,,,,,,,,,,,,,,,,,,,,,,,,,,,,,,,,,,,,,,,,,,,,,,,,,,,,,,,,,,,,,,,test002,motor,3,0,2024-07-31_20h06.37.355,ASRT_percept,2023.2.3,142.30722707185168,
,3,270,0,4,red,sequences/_practice_sequence_00.csv,,,,,,,,,,,0,0,0,0,0,9,9,61,,,,,,,,,,,,,,,,,,,,,200.34273609999946,,,,,,,,,,,,,200.33341819999987,200.34273609999946,200.34273609999946,200.54741620000004,200.77358550000008,4,1,0.42126209999969433,None,200.77450299999964,200.79285199999958,200.79285199999958,200.99863639999967,201.22137750000002,201.21258769999986,201.2126576999999,201.22137750000002,201.91300179999962,,,,,,,,,,,,,,,,,,,,,,,,,,,,,,,,,,,,,,,,,,,,,,,,,,,,,,,,,,,,,,,,test002,motor,3,0,2024-07-31_20h06.37.355,ASRT_percept,2023.2.3,142.30722707185168,
,1,90,2,2,red,sequences/_practice_sequence_00.csv,,,,,,,,,,,0,0,0,0,0,10,10,41,,,,,,,,,,,,,,,,,,,,,201.9215409999997,,,,,,,,,,,,,201.91338449999967,201.9215409999997,201.9215409999997,202.12353050000002,202.41313979999995,2,1,0.48259520000010525,None,202.41406259999985,202.42066869999962,202.42066869999962,202.62428779999937,202.8337107999996,202.82857049999984,202.82860720000008,202.8337107999996,203.5275658999999,203.5332746999993,,,,,,,,,,,,,,,,,,,,,,,,,,,,,,,,,,,,,,,,,,,,,,,,,,,,,,,,,,,,,,,test002,motor,3,0,2024-07-31_20h06.37.355,ASRT_percept,2023.2.3,142.30722707185168,
,2,180,3,1,red,sequences/_practice_sequence_00.csv,,,,,,,,,,,0,0,0,0,0,11,11,42,,,,,,,,,,,,,,,,,,,,,203.5332746999993,,,,,,,,,,,,,203.5279105999998,203.5332746999993,203.5332746999993,203.73508519999996,203.9900276999997,1,1,0.4467137999999977,None,203.99106499999925,204.00503709999975,204.00503709999975,204.2345749999995,204.45575839999947,204.45062199999938,204.45068159999937,204.45575839999947,205.1525716999995,,,,,,,,,,,,,,,,,,,,,,,,,,,,,,,,,,,,,,,,,,,,,,,,,,,,,,,,,,,,,,,,test002,motor,3,0,2024-07-31_20h06.37.355,ASRT_percept,2023.2.3,142.30722707185168,
,1,90,2,2,red,sequences/_practice_sequence_00.csv,,,,,,,,,,,0,0,0,0,0,12,12,83,,,,,,,,,,,,,,,,,,,,,205.15851380000004,,,,,,,,,,,,,205.15334579999944,205.15851380000004,205.15851380000004,205.35994709999977,205.63466049999988,2,1,0.468280600000071,None,205.6354320999999,205.6422980999996,205.6422980999996,205.8389072,206.04743549999966,206.04126469999937,206.04128369999944,206.04743549999966,206.7438505,,,,,,,,,,,,,,,,,,,,,,,,,,,,,,,,,,,,,,,,,,,,,,,,,,,,,,,,,,,,,,,,test002,motor,3,0,2024-07-31_20h06.37.355,ASRT_percept,2023.2.3,142.30722707185168,
,2,180,3,1,red,sequences/_practice_sequence_00.csv,,,,,,,,,,,0,0,0,0,0,13,13,48,,,,,,,,,,,,,,,,,,,,,206.75346939999963,,,,,,,,,,,,,206.74521729999924,206.75346939999963,206.75346939999963,206.95742669999981,207.19415859999935,2,0,0.43952859999990324,None,207.19442039999922,207.20340589999978,207.20340589999978,207.40901059999942,207.61965519999922,207.61168199999975,207.61174049999954,207.61965519999922,208.31720219999988,,,,,,,,,,,,,,,,,,,,,,,,,,,,,,,,,,,,,,,,,,,,,,,,,,,,,,,,,,,,,,,,test002,motor,3,0,2024-07-31_20h06.37.355,ASRT_percept,2023.2.3,142.30722707185168,
,2,180,3,1,red,sequences/_practice_sequence_00.csv,,,,,,,,,,,0,0,0,0,0,14,14,50,,,,,,,,,,,,,,,,,,,,,208.3275066999995,,,,,,,,,,,,,208.31761939999978,208.3275066999995,208.3275066999995,208.5399009999992,208.7778260999994,1,1,0.4448339999999007,None,208.77813439999954,208.7840458999999,208.7840458999999,209.0265356,209.22069849999934,209.2146172999992,209.21463369999947,209.22069849999934,209.91680319999978,,,,,,,,,,,,,,,,,,,,,,,,,,,,,,,,,,,,,,,,,,,,,,,,,,,,,,,,,,,,,,,,test002,motor,3,0,2024-07-31_20h06.37.355,ASRT_percept,2023.2.3,142.30722707185168,
,2,180,3,1,red,sequences/_practice_sequence_00.csv,,,,,,,,,,,0,0,0,0,0,15,15,6,,,,,,,,,,,,,,,,,,,,,209.92730409999967,,,,,,,,,,,,,209.9178213999994,209.92730409999967,209.92730409999967,210.13072339999962,210.33406209999976,1,1,0.40349650000007387,None,210.33459179999954,210.33963689999928,210.33963689999928,210.5682143999993,210.76460549999956,210.76221149999947,210.7622397999994,210.76460549999956,211.4613344999998,211.46875,,,,,,,,,,,,,,,,,,,,,,,,,,,,,,,,,,,,,,,,,,,,,,,,,,,,,,,,,,,,,,,test002,motor,3,0,2024-07-31_20h06.37.355,ASRT_percept,2023.2.3,142.30722707185168,
,3,270,0,4,red,sequences/_practice_sequence_00.csv,,,,,,,,,,,0,0,0,0,0,16,16,9,,,,,,,,,,,,,,,,,,,,,211.46875,,,,,,,,,,,,,211.46258319999924,211.46875,211.46875,211.67188799999985,211.8768541999998,4,1,0.40549600000031205,None,211.8773373999993,211.88386349999928,211.88386349999928,212.0883664999992,212.30403989999922,212.2974795,212.29762109999956,212.30403989999922,212.99846209999941,,,,,,,,,,,,,,,,,,,,,,,,,,,,,,,,,,,,,,,,,,,,,,,,,,,,,,,,,,,,,,,,test002,motor,3,0,2024-07-31_20h06.37.355,ASRT_percept,2023.2.3,142.30722707185168,
,0,0,1,3,red,sequences/_practice_sequence_00.csv,,,,,,,,,,,0,0,0,0,0,17,17,77,,,,,,,,,,,,,,,,,,,,,213.00482119999924,,,,,,,,,,,,,212.99930769999992,213.00482119999924,213.00482119999924,213.20697259999997,213.42365989999962,3,1,0.4148533999996289,None,213.42407169999933,213.4289958999998,213.4289958999998,213.65850210000008,213.8522424999992,213.84666539999944,213.84670579999965,213.8522424999992,214.5473233999992,,,,,,,,,,,,,,,,,,,,,,,,,,,,,,,,,,,,,,,,,,,,,,,,,,,,,,,,,,,,,,,,test002,motor,3,0,2024-07-31_20h06.37.355,ASRT_percept,2023.2.3,142.30722707185168,
,3,270,0,4,red,sequences/_practice_sequence_00.csv,,,,,,,,,,,0,0,0,0,0,18,18,70,,,,,,,,,,,,,,,,,,,,,214.5561917999994,,,,,,,,,,,,,214.54802819999986,214.5561917999994,214.5561917999994,214.76360479999948,214.98772680000002,4,1,0.4267420000005586,None,214.98823559999983,214.99413729999924,214.99413729999924,215.20439139999962,215.40832339999997,215.40313679999963,215.40318369999932,215.40832339999997,216.1036385999996,216.10998259999997,,,,,,,,,,,,,,,,,,,,,,,,,,,,,,,,,,,,,,,,,,,,,,,,,,,,,,,,,,,,,,,test002,motor,3,0,2024-07-31_20h06.37.355,ASRT_percept,2023.2.3,142.30722707185168,
,2,180,3,1,red,sequences/_practice_sequence_00.csv,,,,,,,,,,,0,0,0,0,0,19,19,55,,,,,,,,,,,,,,,,,,,,,216.10998259999997,,,,,,,,,,,,,216.1040469999998,216.10998259999997,216.10998259999997,216.3160485999997,216.52942469999925,1,1,0.41241679999984626,None,216.5300118999994,216.53930760000003,216.53930760000003,216.7550072999993,216.96349709999959,216.9572720999995,216.95731219999925,216.96349709999959,217.65860659999998,,,,,,,,,,,,,,,,,,,,,,,,,,,,,,,,,,,,,,,,,,,,,,,,,,,,,,,,,,,,,,,,test002,motor,3,0,2024-07-31_20h06.37.355,ASRT_percept,2023.2.3,142.30722707185168,
,2,180,3,1,red,sequences/_practice_sequence_00.csv,,,,,,,,,,,0,0,0,0,0,20,20,7,,,,,,,,,,,,,,,,,,,,,217.67071080000005,,,,,,,,,,,,,217.65941269999985,217.67071080000005,217.67071080000005,217.86608109999997,218.1111278999997,1,1,0.4325564000000668,None,218.11208879999958,218.11886549999963,218.11886549999963,218.3318348999992,218.54192149999926,218.53672649999953,218.53675959999964,218.54192149999926,219.23517439999978,219.24172279999948,,,,,,,,,,,,,,,,,,,,,,,,,,,,,,,,,,,,,,,,,,,,,,,,,,,,,,,,,,,,,,,test002,motor,3,0,2024-07-31_20h06.37.355,ASRT_percept,2023.2.3,142.30722707185168,
,1,90,2,2,red,sequences/_practice_sequence_00.csv,,,,,,,,,,,0,0,0,0,0,21,21,79,,,,,,,,,,,,,,,,,,,,,219.24172279999948,,,,,,,,,,,,,219.23544349999975,219.24172279999948,219.24172279999948,219.44338719999996,219.7188626999996,2,1,0.4612848999995549,None,219.7199971,219.7325910999998,219.7325910999998,219.94244029999936,220.1537903999997,220.1488075999996,220.14887199999976,220.1537903999997,220.8495172999992,220.8560435999998,,,,,,,,,,,,,,,,,,,,,,,,,,,,,,,,,,,,,,,,,,,,,,,,,,,,,,,,,,,,,,,test002,motor,3,0,2024-07-31_20h06.37.355,ASRT_percept,2023.2.3,142.30722707185168,
,1,90,2,2,red,sequences/_practice_sequence_00.csv,,,,,,,,,,,0,0,0,0,0,22,22,27,,,,,,,,,,,,,,,,,,,,,220.8560435999998,,,,,,,,,,,,,220.85000949999994,220.8560435999998,220.8560435999998,221.06092929999977,221.33445369999936,2,1,0.4680601999998544,None,221.33662060000006,221.34584839999934,221.34584839999934,221.54042909999953,221.7538924999999,221.74712259999978,221.7471534999995,221.7538924999999,222.4507221999993,,,,,,,,,,,,,,,,,,,,,,,,,,,,,,,,,,,,,,,,,,,,,,,,,,,,,,,,,,,,,,,,test002,motor,3,0,2024-07-31_20h06.37.355,ASRT_percept,2023.2.3,142.30722707185168,
,3,270,0,4,red,sequences/_practice_sequence_00.csv,,,,,,,,,,,0,0,0,0,0,23,23,26,,,,,,,,,,,,,,,,,,,,,222.4612262999999,,,,,,,,,,,,,222.4516537999998,222.4612262999999,222.4612262999999,222.66473270000006,222.87957169999936,4,1,0.4115731000001688,None,222.88084679999974,222.89237549999962,222.89237549999962,223.08848769999986,223.29663559999972,223.29110020000007,223.29112389999955,223.29663559999972,223.99378569999953,,,,,,,,,,,,,,,,,,,,,,,,,,,,,,,,,,,,,,,,,,,,,,,,,,,,,,,,,,,,,,,,test002,motor,3,0,2024-07-31_20h06.37.355,ASRT_percept,2023.2.3,142.30722707185168,
,2,180,3,1,red,sequences/_practice_sequence_00.csv,,,,,,,,,,,0,0,0,0,0,24,24,49,,,,,,,,,,,,,,,,,,,,,224.004003,,,,,,,,,,,,,223.99515100000008,224.004003,224.004003,224.2064832999995,224.39695949999987,1,1,0.3876847000001362,None,224.39742989999922,224.40499799999998,224.40499799999998,224.61409099999946,224.8177673,224.8139788999997,224.8140113999998,224.8177673,225.51257149999947,225.5195374999994,,,,,,,,,,,,,,,,,,,,,,,,,,,,,,,,,,,,,,,,,,,,,,,,,,,,,,,,,,,,,,,test002,motor,3,0,2024-07-31_20h06.37.355,ASRT_percept,2023.2.3,142.30722707185168,
,0,0,1,3,red,sequences/_practice_sequence_00.csv,,,,,,,,,,,0,0,0,0,0,25,25,14,,,,,,,,,,,,,,,,,,,,,225.5195374999994,,,,,,,,,,,,,225.51298609999958,225.5195374999994,225.5195374999994,225.72549619999972,225.93711749999966,3,1,0.41050579999955517,None,225.93824799999948,225.94851819999985,225.94851819999985,226.15299349999987,226.3623353999992,226.35495659999924,226.35501849999946,226.3623353999992,227.0559659999999,227.06164549999994,,,,,,,,,,,,,,,,,,,,,,,,,,,,,,,,,,,,,,,,,,,,,,,,,,,,,,,,,,,,,,,test002,motor,3,0,2024-07-31_20h06.37.355,ASRT_percept,2023.2.3,142.30722707185168,
,2,180,3,1,red,sequences/_practice_sequence_00.csv,,,,,,,,,,,0,0,0,0,0,26,26,67,,,,,,,,,,,,,,,,,,,,,227.06164549999994,,,,,,,,,,,,,227.0564222999992,227.06164549999994,227.06164549999994,227.26243929999964,227.52386260000003,2,0,0.4561591000001499,None,227.52442489999976,227.53393119999964,227.53393119999964,227.73402850000002,227.94957840000006,227.94347279999965,227.94350479999957,227.94957840000006,228.64495819999956,,,,,,,,,,,,,,,,,,,,,,,,,,,,,,,,,,,,,,,,,,,,,,,,,,,,,,,,,,,,,,,,test002,motor,3,0,2024-07-31_20h06.37.355,ASRT_percept,2023.2.3,142.30722707185168,
,1,90,2,2,red,sequences/_practice_sequence_00.csv,,,,,,,,,,,0,0,0,0,0,27,27,10,,,,,,,,,,,,,,,,,,,,,228.6514441999998,,,,,,,,,,,,,228.64533519999986,228.6514441999998,228.6514441999998,228.8531763000001,229.14651569999933,2,1,0.48713580000003276,None,229.14731909999955,229.15915199999927,229.15915199999927,229.3662807999999,229.58687459999965,229.57850249999956,229.57855029999973,229.58687459999965,230.28380299999935,,,,,,,,,,,,,,,,,,,,,,,,,,,,,,,,,,,,,,,,,,,,,,,,,,,,,,,,,,,,,,,,test002,motor,3,0,2024-07-31_20h06.37.355,ASRT_percept,2023.2.3,142.30722707185168,
,1,90,2,2,red,sequences/_practice_sequence_00.csv,,,,,,,,,,,0,0,0,0,0,28,28,63,,,,,,,,,,,,,,,,,,,,,230.29196009999941,,,,,,,,,,,,,230.2851699999992,230.29196009999941,230.29196009999941,230.49141189999955,230.78882169999997,2,1,0.4912191999992501,None,230.78979959999924,230.8000704999995,230.8000704999995,231.04545830000006,231.24218609999934,231.23615229999996,231.23619839999992,231.24218609999934,231.93761919999997,231.9482395999994,,,,,,,,,,,,,,,,,,,,,,,,,,,,,,,,,,,,,,,,,,,,,,,,,,,,,,,,,,,,,,,test002,motor,3,0,2024-07-31_20h06.37.355,ASRT_percept,2023.2.3,142.30722707185168,
,2,180,3,1,red,sequences/_practice_sequence_00.csv,,,,,,,,,,,0,0,0,0,0,29,29,57,,,,,,,,,,,,,,,,,,,,,231.9482395999994,,,,,,,,,,,,,231.9393487999996,231.9482395999994,231.9482395999994,232.15134339999986,232.3938204999995,1,1,0.4386015000000043,None,232.3954178999993,232.40381720000005,232.40381720000005,232.60259489999953,232.81050609999966,232.8063220999993,232.8063543999997,232.81050609999966,233.50597109999944,233.51190359999964,,,,,,,,,,,,,,,,,,,,,,,,,,,,,,,,,,,,,,,,,,,,,,,,,,,,,,,,,,,,,,,test002,motor,3,0,2024-07-31_20h06.37.355,ASRT_percept,2023.2.3,142.30722707185168,
,0,0,1,3,red,sequences/_practice_sequence_00.csv,,,,,,,,,,,0,0,0,0,0,30,30,72,,,,,,,,,,,,,,,,,,,,,233.51190359999964,,,,,,,,,,,,,233.50646419999975,233.51190359999964,233.51190359999964,233.7143427000001,233.92312949999996,3,1,0.4041711000008945,None,233.9237366999996,233.92872979999993,233.92872979999993,234.15051869999934,234.3618246999995,234.35443929999929,234.35448949999954,234.3618246999995,235.05808239999988,,,,,,,,,,,,,,,,,,,,,,,,,,,,,,,,,,,,,,,,,,,,,,,,,,,,,,,,,,,,,,,,test002,motor,3,0,2024-07-31_20h06.37.355,ASRT_percept,2023.2.3,142.30722707185168,
,3,270,0,4,red,sequences/_practice_sequence_00.csv,,,,,,,,,,,0,0,0,0,0,31,31,59,,,,,,,,,,,,,,,,,,,,,235.0698700999992,,,,,,,,,,,,,235.05932399999983,235.0698700999992,235.0698700999992,235.275482,235.4834134999992,4,1,0.40590879999945173,None,235.48485769999934,235.4947757,235.4947757,235.7007326999992,235.90217909999956,235.89603719999923,235.89608829999997,235.90217909999956,236.59683640000003,236.60398649999934,,,,,,,,,,,,,,,,,,,,,,,,,,,,,,,,,,,,,,,,,,,,,,,,,,,,,,,,,,,,,,,test002,motor,3,0,2024-07-31_20h06.37.355,ASRT_percept,2023.2.3,142.30722707185168,
,0,0,1,3,red,sequences/_practice_sequence_00.csv,,,,,,,,,,,0,0,0,0,0,32,32,58,,,,,,,,,,,,,,,,,,,,,236.60398649999934,,,,,,,,,,,,,236.5976000999999,236.60398649999934,236.60398649999934,236.80324949999977,237.0182361999996,3,1,0.40799580000020796,None,237.01984869999978,237.03202049999982,237.03202049999982,237.23664519999966,237.43725779999932,237.43079959999977,237.43083859999933,237.43725779999932,238.13762429999952,,,,,,,,,,,,,,,,,,,,,,,,,,,,,,,,,,,,,,,,,,,,,,,,,,,,,,,,,,,,,,,,test002,motor,3,0,2024-07-31_20h06.37.355,ASRT_percept,2023.2.3,142.30722707185168,
,2,180,3,1,red,sequences/_practice_sequence_00.csv,,,,,,,,,,,0,0,0,0,0,33,33,62,,,,,,,,,,,,,,,,,,,,,238.14433669999926,,,,,,,,,,,,,238.13883579999947,238.14433669999926,238.14433669999926,238.34513939999943,238.53991789999964,1,1,0.3908579999997528,None,238.54174759999933,238.55322699999942,238.55322699999942,238.7549283999997,238.96332660000007,238.9601088999998,238.96013700000003,238.96332660000007,239.66092429999935,239.66707489999953,,,,,,,,,,,,,,,,,,,,,,,,,,,,,,,,,,,,,,,,,,,,,,,,,,,,,,,,,,,,,,,test002,motor,3,0,2024-07-31_20h06.37.355,ASRT_percept,2023.2.3,142.30722707185168,
,2,180,3,1,red,sequences/_practice_sequence_00.csv,,,,,,,,,,,0,0,0,0,0,34,34,40,,,,,,,,,,,,,,,,,,,,,239.66707489999953,,,,,,,,,,,,,239.6614981999992,239.66707489999953,239.66707489999953,239.87024779999956,240.12320829999953,1,1,0.4445949999999357,None,240.12575560000005,240.1361322999992,240.1361322999992,240.35184429999936,240.58069449999948,240.57227449999937,240.57234609999978,240.58069449999948,241.2754961999999,,,,,,,,,,,,,,,,,,,,,,,,,,,,,,,,,,,,,,,,,,,,,,,,,,,,,,,,,,,,,,,,test002,motor,3,0,2024-07-31_20h06.37.355,ASRT_percept,2023.2.3,142.30722707185168,
,3,270,0,4,red,sequences/_practice_sequence_00.csv,,,,,,,,,,,0,0,0,0,0,35,35,46,,,,,,,,,,,,,,,,,,,,,241.2822329999999,,,,,,,,,,,,,241.27592389999973,241.2822329999999,241.2822329999999,241.48389429999952,241.67540279999957,4,1,0.3849274999993213,None,241.67597279999973,241.6818859999994,241.6818859999994,241.88668770000004,242.09511870000006,242.08870260000003,242.08872780000002,242.09511870000006,242.7925013999993,,,,,,,,,,,,,,,,,,,,,,,,,,,,,,,,,,,,,,,,,,,,,,,,,,,,,,,,,,,,,,,,test002,motor,3,0,2024-07-31_20h06.37.355,ASRT_percept,2023.2.3,142.30722707185168,
,2,180,3,1,red,sequences/_practice_sequence_00.csv,,,,,,,,,,,0,0,0,0,0,36,36,0,,,,,,,,,,,,,,,,,,,,,242.8016603999995,,,,,,,,,,,,,242.7935181999992,242.8016603999995,242.8016603999995,243.00681749999967,243.17713419999927,3,0,0.3706523000000743,None,243.1795190999992,243.1894046999996,243.1894046999996,243.38647859999946,243.59606759999951,243.58982109999943,243.58987479999996,243.59606759999951,244.2905508999993,244.29612889999953,,,,,,,,,,,,,,,,,,,,,,,,,,,,,,,,,,,,,,,,,,,,,,,,,,,,,,,,,,,,,,,test002,motor,3,0,2024-07-31_20h06.37.355,ASRT_percept,2023.2.3,142.30722707185168,
,1,90,2,2,red,sequences/_practice_sequence_00.csv,,,,,,,,,,,0,0,0,0,0,37,37,73,,,,,,,,,,,,,,,,,,,,,244.29612889999953,,,,,,,,,,,,,244.29115199999978,244.29612889999953,244.29612889999953,244.503197,244.76365349999924,2,1,0.4604711000001771,None,244.76448329999948,244.7742005,244.7742005,244.97706609999932,245.18796199999997,245.18052409999927,245.1805934999993,245.18796199999997,245.88102609999987,,,,,,,,,,,,,,,,,,,,,,,,,,,,,,,,,,,,,,,,,,,,,,,,,,,,,,,,,,,,,,,,test002,motor,3,0,2024-07-31_20h06.37.355,ASRT_percept,2023.2.3,142.30722707185168,
,3,270,0,4,red,sequences/_practice_sequence_00.csv,,,,,,,,,,,0,0,0,0,0,38,38,69,,,,,,,,,,,,,,,,,,,,,245.88919069999974,,,,,,,,,,,,,245.88212649999969,245.88919069999974,245.88919069999974,246.09496909999962,246.32621819999986,4,1,0.4281513999994786,None,246.3266178999993,246.3334460999995,246.3334460999995,246.53939069999979,246.74746699999923,246.74267139999938,246.7427003999992,246.74746699999923,247.44233839999924,247.45607049999944,,,,,,,,,,,,,,,,,,,,,,,,,,,,,,,,,,,,,,,,,,,,,,,,,,,,,,,,,,,,,,,test002,motor,3,0,2024-07-31_20h06.37.355,ASRT_percept,2023.2.3,142.30722707185168,
,1,90,2,2,red,sequences/_practice_sequence_00.csv,,,,,,,,,,,0,0,0,0,0,39,39,74,,,,,,,,,,,,,,,,,,,,,247.45607049999944,,,,,,,,,,,,,247.44357729999956,247.45607049999944,247.45607049999944,247.65533059999962,247.91404389999934,2,1,0.45229380000000674,None,247.91528259999995,247.92495770000005,247.92495770000005,248.17677969999932,248.38139359999968,248.37350869999955,248.37353859999985,248.38139359999968,249.07526419999976,,,,,,,,,,,,,,,,,,,,,,,,,,,,,,,,,,,,,,,,,,,,,,,,,,,,,,,,,,,,,,,,test002,motor,3,0,2024-07-31_20h06.37.355,ASRT_percept,2023.2.3,142.30722707185168,
,0,0,1,3,red,sequences/_practice_sequence_00.csv,,,,,,,,,,,0,0,0,0,0,40,40,12,,,,,,,,,,,,,,,,,,,,,249.08278040000005,,,,,,,,,,,,,249.0764448,249.08278040000005,249.08278040000005,249.28233289999935,249.51890579999963,3,1,0.4303658999997424,None,249.52028589999918,249.53260339999997,249.53260339999997,249.74118569999973,249.94907389999935,249.9438954999996,249.94394509999984,249.94907389999935,250.6457120999994,250.66176180000002,,,,,,,,,,,,,,,,,,,,,,,,,,,,,,,,,,,,,,,,,,,,,,,,,,,,,,,,,,,,,,,test002,motor,3,0,2024-07-31_20h06.37.355,ASRT_percept,2023.2.3,142.30722707185168,
,0,0,1,3,red,sequences/_practice_sequence_00.csv,,,,,,,,,,,0,0,0,0,0,41,41,76,,,,,,,,,,,,,,,,,,,,,250.66176180000002,,,,,,,,,,,,,250.64694249999957,250.66176180000002,250.66176180000002,250.86619939999946,251.01484859999982,4,0,0.34986749999916356,None,251.01546879999933,251.02130289999968,251.02130289999968,251.23005139999987,251.43727659999968,251.43013859999974,251.43040719999954,251.43727659999968,252.13992939999935,,,,,,,,,,,,,,,,,,,,,,,,,,,,,,,,,,,,,,,,,,,,,,,,,,,,,,,,,,,,,,,,test002,motor,3,0,2024-07-31_20h06.37.355,ASRT_percept,2023.2.3,142.30722707185168,
,3,270,0,4,red,sequences/_practice_sequence_00.csv,,,,,,,,,,,0,0,0,0,0,42,42,32,,,,,,,,,,,,,,,,,,,,,252.1486262999997,,,,,,,,,,,,,252.14095089999955,252.1486262999997,252.1486262999997,252.35083929999928,252.5239888999995,1,0,0.37109430000055,None,252.5256873999997,252.54117309999947,252.54117309999947,252.7475254000001,252.95602280000003,252.95096439999998,252.9510427999994,252.95602280000003,253.65217129999928,253.66166219999923,,,,,,,,,,,,,,,,,,,,,,,,,,,,,,,,,,,,,,,,,,,,,,,,,,,,,,,,,,,,,,,test002,motor,3,0,2024-07-31_20h06.37.355,ASRT_percept,2023.2.3,142.30722707185168,
,2,180,3,1,red,sequences/_practice_sequence_00.csv,,,,,,,,,,,0,0,0,0,0,43,43,17,,,,,,,,,,,,,,,,,,,,,253.66166219999923,,,,,,,,,,,,,253.65302410000004,253.66166219999923,253.66166219999923,253.8591692,254.12111189999996,1,1,0.4505758999994214,None,254.12166909999996,254.12853659999928,254.12853659999928,254.3306961999997,254.53879770000003,254.5337899999995,254.53382919999967,254.53879770000003,255.2352234,255.2471233999995,,,,,,,,,,,,,,,,,,,,,,,,,,,,,,,,,,,,,,,,,,,,,,,,,,,,,,,,,,,,,,,test002,motor,3,0,2024-07-31_20h06.37.355,ASRT_percept,2023.2.3,142.30722707185168,
,2,180,3,1,red,sequences/_practice_sequence_00.csv,,,,,,,,,,,0,0,0,0,0,44,44,54,,,,,,,,,,,,,,,,,,,,,255.2471233999995,,,,,,,,,,,,,255.23604089999935,255.2471233999995,255.2471233999995,255.45247799999925,255.6616656999995,1,1,0.4076847000005728,None,255.66234110000005,255.6700484999992,255.6700484999992,255.87293819999923,256.08148339999934,256.0744092999994,256.07442399999945,256.08148339999934,256.77617869999995,,,,,,,,,,,,,,,,,,,,,,,,,,,,,,,,,,,,,,,,,,,,,,,,,,,,,,,,,,,,,,,,test002,motor,3,0,2024-07-31_20h06.37.355,ASRT_percept,2023.2.3,142.30722707185168,
,1,90,2,2,red,sequences/_practice_sequence_00.csv,,,,,,,,,,,0,0,0,0,0,45,45,37,,,,,,,,,,,,,,,,,,,,,256.7857406999992,,,,,,,,,,,,,256.77743159999955,256.7857406999992,256.7857406999992,256.9904013999994,257.3064988999995,2,1,0.5137526999997135,None,257.30739079999967,257.3127506999999,257.3127506999999,257.51417760000004,257.7235987999993,257.71520259999943,257.71528599999965,257.7235987999993,258.4217364999995,,,,,,,,,,,,,,,,,,,,,,,,,,,,,,,,,,,,,,,,,,,,,,,,,,,,,,,,,,,,,,,,test002,motor,3,0,2024-07-31_20h06.37.355,ASRT_percept,2023.2.3,142.30722707185168,
,3,270,0,4,red,sequences/_practice_sequence_00.csv,,,,,,,,,,,0,0,0,0,0,46,46,4,,,,,,,,,,,,,,,,,,,,,258.4286069,,,,,,,,,,,,,258.4223650999993,258.4286069,258.4286069,258.62816509999993,258.88160549999975,4,1,0.44621189999998023,None,258.882302,258.8904143,258.8904143,259.0946381999993,259.3050612999996,259.29670499999975,259.29672969999956,259.3050612999996,259.99839669999983,,,,,,,,,,,,,,,,,,,,,,,,,,,,,,,,,,,,,,,,,,,,,,,,,,,,,,,,,,,,,,,,test002,motor,3,0,2024-07-31_20h06.37.355,ASRT_percept,2023.2.3,142.30722707185168,
,1,90,2,2,red,sequences/_practice_sequence_00.csv,,,,,,,,,,,0,0,0,0,0,47,47,66,,,,,,,,,,,,,,,,,,,,,260.00698740000007,,,,,,,,,,,,,259.9994760999998,260.00698740000007,260.00698740000007,260.21180060000006,260.6387645999994,2,1,0.6201048000002629,None,260.63998119999997,260.64863929999956,260.64863929999956,260.8512217999996,261.05379079999966,261.0474403999997,261.0478825,261.05379079999966,261.74874,261.75457299999925,,,,,,,,,,,,,,,,,,,,,,,,,,,,,,,,,,,,,,,,,,,,,,,,,,,,,,,,,,,,,,,test002,motor,3,0,2024-07-31_20h06.37.355,ASRT_percept,2023.2.3,142.30722707185168,
,1,90,2,2,red,sequences/_practice_sequence_00.csv,,,,,,,,,,,0,0,0,0,0,48,48,38,,,,,,,,,,,,,,,,,,,,,261.75457299999925,,,,,,,,,,,,,261.7495360999992,261.75457299999925,261.75457299999925,261.9606630999997,262.25885429999926,2,1,0.49550449999969715,None,262.25938659999974,262.2666838999994,262.2666838999994,262.47360519999984,262.6782973999998,262.6730063999994,262.67308049999974,262.6782973999998,263.37383339999997,,,,,,,,,,,,,,,,,,,,,,,,,,,,,,,,,,,,,,,,,,,,,,,,,,,,,,,,,,,,,,,,test002,motor,3,0,2024-07-31_20h06.37.355,ASRT_percept,2023.2.3,142.30722707185168,
,2,180,3,1,red,sequences/_practice_sequence_00.csv,,,,,,,,,,,0,0,0,0,0,49,49,8,,,,,,,,,,,,,,,,,,,,,263.3819365999998,,,,,,,,,,,,,263.3744784999999,263.3819365999998,263.3819365999998,263.58008729999983,263.89744079999946,1,1,0.5098982999998043,None,263.8983367999999,263.9077340999993,263.9077340999993,264.1477127999997,264.36206909999964,264.35251289999997,264.35260969999945,264.36206909999964,265.0546080999993,,,,,,,,,,,,,,,,,,,,,,,,,,,,,,,,,,,,,,,,,,,,,,,,,,,,,,,,,,,,,,,,test002,motor,3,0,2024-07-31_20h06.37.355,ASRT_percept,2023.2.3,142.30722707185168,
,0,0,1,3,red,sequences/_practice_sequence_00.csv,,,,,,,,,,,0,0,0,0,0,50,50,30,,,,,,,,,,,,,,,,,,,,,265.0647235999995,,,,,,,,,,,,,265.0560855999993,265.0647235999995,265.0647235999995,265.26915869999993,265.5283075999996,3,1,0.45851649999985966,None,265.5289731999992,265.53783999999996,265.53783999999996,265.7406956999994,265.9492359999995,265.94384029999947,265.94388979999985,265.9492359999995,266.64516769999955,266.6621860999994,,,,,,,,,,,,,,,,,,,,,,,,,,,,,,,,,,,,,,,,,,,,,,,,,,,,,,,,,,,,,,,test002,motor,3,0,2024-07-31_20h06.37.355,ASRT_percept,2023.2.3,142.30722707185168,
,1,90,2,2,red,sequences/_practice_sequence_00.csv,,,,,,,,,,,0,0,0,0,0,51,51,51,,,,,,,,,,,,,,,,,,,,,266.6621860999994,,,,,,,,,,,,,266.64649889999964,266.6621860999994,266.6621860999994,266.8582553999995,267.12141079999947,2,1,0.4522490999997899,None,267.1226864999999,267.1376587999994,267.1376587999994,267.3371535999995,267.5504028999994,267.54151099999945,267.5415942999998,267.5504028999994,268.2485928999995,,,,,,,,,,,,,,,,,,,,,,,,,,,,,,,,,,,,,,,,,,,,,,,,,,,,,,,,,,,,,,,,test002,motor,3,0,2024-07-31_20h06.37.355,ASRT_percept,2023.2.3,142.30722707185168,
,0,0,1,3,red,sequences/_practice_sequence_00.csv,,,,,,,,,,,0,0,0,0,0,52,52,18,,,,,,,,,,,,,,,,,,,,,268.2554320999998,,,,,,,,,,,,,268.24964759999966,268.2554320999998,268.2554320999998,268.4568212999993,268.76804079999965,3,1,0.5095168999996531,None,268.7687989999995,268.77703419999943,268.77703419999943,268.9836317999998,269.2021429999995,269.1970490999993,269.19707239999934,269.2021429999995,269.9010927999998,,,,,,,,,,,,,,,,,,,,,,,,,,,,,,,,,,,,,,,,,,,,,,,,,,,,,,,,,,,,,,,,test002,motor,3,0,2024-07-31_20h06.37.355,ASRT_percept,2023.2.3,142.30722707185168,
,3,270,0,4,red,sequences/_practice_sequence_00.csv,,,,,,,,,,,0,0,0,0,0,53,53,19,,,,,,,,,,,,,,,,,,,,,269.9122013999995,,,,,,,,,,,,,269.90220939999926,269.9122013999995,269.9122013999995,270.1152732999999,270.35785699999997,4,1,0.43576910000047064,None,270.3594061999993,270.37228179999966,270.37228179999966,270.58729719999974,270.7957201999998,270.78962709999996,270.7896637999993,270.7957201999998,271.49168569999983,,,,,,,,,,,,,,,,,,,,,,,,,,,,,,,,,,,,,,,,,,,,,,,,,,,,,,,,,,,,,,,,test002,motor,3,0,2024-07-31_20h06.37.355,ASRT_percept,2023.2.3,142.30722707185168,
,2,180,3,1,red,sequences/_practice_sequence_00.csv,,,,,,,,,,,0,0,0,0,0,54,54,1,,,,,,,,,,,,,,,,,,,,,271.50029169999925,,,,,,,,,,,,,271.49322159999974,271.50029169999925,271.50029169999925,271.70582939999986,271.9983136000001,1,1,0.49177419999978156,None,271.9987124999998,272.0042982999994,272.0042982999994,272.21232919999966,272.42110429999957,272.4153209999995,272.4154171,272.42110429999957,273.11677280000004,273.1219766999993,,,,,,,,,,,,,,,,,,,,,,,,,,,,,,,,,,,,,,,,,,,,,,,,,,,,,,,,,,,,,,,test002,motor,3,0,2024-07-31_20h06.37.355,ASRT_percept,2023.2.3,142.30722707185168,
,0,0,1,3,red,sequences/_practice_sequence_00.csv,,,,,,,,,,,0,0,0,0,0,55,55,39,,,,,,,,,,,,,,,,,,,,,273.1219766999993,,,,,,,,,,,,,273.11744219999946,273.1219766999993,273.1219766999993,273.3239545999995,273.5975080999997,3,1,0.4723629999998593,None,273.5979346999993,273.6030985999996,273.6030985999996,273.81606759999977,274.02456230000007,274.01865439999983,274.0187108,274.02456230000007,274.71939810000003,,,,,,,,,,,,,,,,,,,,,,,,,,,,,,,,,,,,,,,,,,,,,,,,,,,,,,,,,,,,,,,,test002,motor,3,0,2024-07-31_20h06.37.355,ASRT_percept,2023.2.3,142.30722707185168,
,2,180,3,1,red,sequences/_practice_sequence_00.csv,,,,,,,,,,,0,0,0,0,0,56,56,75,,,,,,,,,,,,,,,,,,,,,274.7318809999997,,,,,,,,,,,,,274.72051379999994,274.7318809999997,274.7318809999997,274.93445109999993,275.2496580999996,1,1,0.5133412999994107,None,275.2507310000001,275.2586199999996,275.2586199999996,275.46233699999993,275.67041470000004,275.66602109999985,275.6660796999995,275.67041470000004,276.3637140999999,276.3762328999992,,,,,,,,,,,,,,,,,,,,,,,,,,,,,,,,,,,,,,,,,,,,,,,,,,,,,,,,,,,,,,,test002,motor,3,0,2024-07-31_20h06.37.355,ASRT_percept,2023.2.3,142.30722707185168,
,1,90,2,2,red,sequences/_practice_sequence_00.csv,,,,,,,,,,,0,0,0,0,0,57,57,84,,,,,,,,,,,,,,,,,,,,,276.3762328999992,,,,,,,,,,,,,276.3645661999999,276.3762328999992,276.3762328999992,276.58212469999944,276.8809137999997,2,1,0.5005595000002359,None,276.8816954999993,276.88759389999996,276.88759389999996,277.0942105999993,277.3073128999995,277.29690409999967,277.29704859999947,277.3073128999995,277.9984693999995,,,,,,,,,,,,,,,,,,,,,,,,,,,,,,,,,,,,,,,,,,,,,,,,,,,,,,,,,,,,,,,,test002,motor,3,0,2024-07-31_20h06.37.355,ASRT_percept,2023.2.3,142.30722707185168,
,1,90,2,2,red,sequences/_practice_sequence_00.csv,,,,,,,,,,,0,0,0,0,0,58,58,43,,,,,,,,,,,,,,,,,,,,,278.0122834999993,,,,,,,,,,,,,278.00000049999926,278.0122834999993,278.0122834999993,278.21723179999935,278.43391709999923,2,1,0.4160683000000063,None,278.4352253999996,278.4489472999994,278.4489472999994,278.6427836999992,278.8539796999994,278.8492220999997,278.8492523999994,278.8539796999994,279.5531412,,,,,,,,,,,,,,,,,,,,,,,,,,,,,,,,,,,,,,,,,,,,,,,,,,,,,,,,,,,,,,,,test002,motor,3,0,2024-07-31_20h06.37.355,ASRT_percept,2023.2.3,142.30722707185168,
,0,0,1,3,red,sequences/_practice_sequence_00.csv,,,,,,,,,,,0,0,0,0,0,59,59,13,,,,,,,,,,,,,,,,,,,,,279.5624644999998,,,,,,,,,,,,,279.55431879999924,279.5624644999998,279.5624644999998,279.7690531999997,280.1613281,3,1,0.5922900000005029,None,280.16258519999974,280.1783364999992,280.1783364999992,280.4134146999995,280.6265851999997,280.61833489999935,280.6184180999999,280.6265851999997,281.31928489999973,,,,,,,,,,,,,,,,,,,,,,,,,,,,,,,,,,,,,,,,,,,,,,,,,,,,,,,,,,,,,,,,test002,motor,3,0,2024-07-31_20h06.37.355,ASRT_percept,2023.2.3,142.30722707185168,
,2,180,3,1,red,sequences/_practice_sequence_00.csv,,,,,,,,,,,0,0,0,0,0,60,60,21,,,,,,,,,,,,,,,,,,,,,281.3293788000001,,,,,,,,,,,,,281.3206119999995,281.3293788000001,281.3293788000001,281.52862209999967,281.7906890999993,1,1,0.4532240999997157,None,281.7919277000001,281.8046474999992,281.8046474999992,282.0160100999992,282.2363228999993,282.22627419999935,282.22636220000004,282.2363228999993,282.9314768999993,,,,,,,,,,,,,,,,,,,,,,,,,,,,,,,,,,,,,,,,,,,,,,,,,,,,,,,,,,,,,,,,test002,motor,3,0,2024-07-31_20h06.37.355,ASRT_percept,2023.2.3,142.30722707185168,
,2,180,3,1,red,sequences/_practice_sequence_00.csv,,,,,,,,,,,0,0,0,0,0,61,61,3,,,,,,,,,,,,,,,,,,,,,282.94144009999945,,,,,,,,,,,,,282.93231039999955,282.94144009999945,282.94144009999945,283.14354509999976,283.3857380999998,1,1,0.4365180999993754,None,283.3870057999993,283.39312449999943,283.39312449999943,283.59414519999973,283.80289019999964,283.7976043999997,283.79763829999956,283.80289019999964,284.4987210999998,284.5080799999996,,,,,,,,,,,,,,,,,,,,,,,,,,,,,,,,,,,,,,,,,,,,,,,,,,,,,,,,,,,,,,,test002,motor,3,0,2024-07-31_20h06.37.355,ASRT_percept,2023.2.3,142.30722707185168,
,3,270,0,4,red,sequences/_practice_sequence_00.csv,,,,,,,,,,,0,0,0,0,0,62,62,68,,,,,,,,,,,,,,,,,,,,,284.5080799999996,,,,,,,,,,,,,284.49974099999963,284.5080799999996,284.5080799999996,284.71312039999975,284.9510676,4,1,0.43797079999967536,None,284.95177409999997,284.9619892999999,284.9619892999999,285.18763319999925,285.38563369999974,285.38022009999986,285.3802595999996,285.38563369999974,286.08089969999946,,,,,,,,,,,,,,,,,,,,,,,,,,,,,,,,,,,,,,,,,,,,,,,,,,,,,,,,,,,,,,,,test002,motor,3,0,2024-07-31_20h06.37.355,ASRT_percept,2023.2.3,142.30722707185168,
,0,0,1,3,red,sequences/_practice_sequence_00.csv,,,,,,,,,,,0,0,0,0,0,63,63,25,,,,,,,,,,,,,,,,,,,,,286.0876204999995,,,,,,,,,,,,,286.08154639999975,286.0876204999995,286.0876204999995,286.2889921999995,286.60927489999995,3,1,0.5200439000000188,None,286.60954799999945,286.6144041999996,286.6144041999996,286.82310679999955,287.0388893999998,287.0331736999997,287.0332206999992,287.0388893999998,287.7335134999994,,,,,,,,,,,,,,,,,,,,,,,,,,,,,,,,,,,,,,,,,,,,,,,,,,,,,,,,,,,,,,,,test002,motor,3,0,2024-07-31_20h06.37.355,ASRT_percept,2023.2.3,142.30722707185168,
,2,180,3,1,red,sequences/_practice_sequence_00.csv,,,,,,,,,,,0,0,0,0,0,64,64,16,,,,,,,,,,,,,,,,,,,,,287.7404573999993,,,,,,,,,,,,,287.73444329999984,287.7404573999993,287.7404573999993,287.9395265999992,288.15130229999977,1,1,0.40679160000036063,None,288.15294859999995,288.16621809999924,288.16621809999924,288.3845563999994,288.5909034999995,288.5860585999999,288.58609329999945,288.5909034999995,289.28840599999967,,,,,,,,,,,,,,,,,,,,,,,,,,,,,,,,,,,,,,,,,,,,,,,,,,,,,,,,,,,,,,,,test002,motor,3,0,2024-07-31_20h06.37.355,ASRT_percept,2023.2.3,142.30722707185168,
,3,270,0,4,red,sequences/_practice_sequence_00.csv,,,,,,,,,,,0,0,0,0,0,65,65,15,,,,,,,,,,,,,,,,,,,,,289.2951002,,,,,,,,,,,,,289.2887671999997,289.2951002,289.2951002,289.4967913999999,289.7508825999994,3,0,0.446805100000347,None,289.75158779999947,289.7598754999999,289.7598754999999,289.9624464999997,290.17055039999923,290.1644461999995,290.16448450000007,290.17055039999923,290.8646154999997,,,,,,,,,,,,,,,,,,,,,,,,,,,,,,,,,,,,,,,,,,,,,,,,,,,,,,,,,,,,,,,,test002,motor,3,0,2024-07-31_20h06.37.355,ASRT_percept,2023.2.3,142.30722707185168,
,3,270,0,4,red,sequences/_practice_sequence_00.csv,,,,,,,,,,,0,0,0,0,0,66,66,2,,,,,,,,,,,,,,,,,,,,,290.8716697,,,,,,,,,,,,,290.86537279999993,290.8716697,290.8716697,291.06726099999923,291.23157509999965,4,1,0.3530267999994976,None,291.23383359999934,291.25136779999957,291.25136779999957,291.48561189999964,291.7124568999998,291.7079834999995,291.7080142999994,291.7124568999998,292.4086826999992,292.41957999999977,,,,,,,,,,,,,,,,,,,,,,,,,,,,,,,,,,,,,,,,,,,,,,,,,,,,,,,,,,,,,,,test002,motor,3,0,2024-07-31_20h06.37.355,ASRT_percept,2023.2.3,142.30722707185168,
,2,180,3,1,red,sequences/_practice_sequence_00.csv,,,,,,,,,,,0,0,0,0,0,67,67,23,,,,,,,,,,,,,,,,,,,,,292.41957999999977,,,,,,,,,,,,,292.40959609999936,292.41957999999977,292.41957999999977,292.6249672999993,292.8837739999999,1,1,0.45432569999957195,None,292.8857746999993,292.8928707999994,292.8928707999994,293.1233018999992,293.33872900000006,293.33260429999973,293.33268659999976,293.33872900000006,294.03397760000007,,,,,,,,,,,,,,,,,,,,,,,,,,,,,,,,,,,,,,,,,,,,,,,,,,,,,,,,,,,,,,,,test002,motor,3,0,2024-07-31_20h06.37.355,ASRT_percept,2023.2.3,142.30722707185168,
,1,90,2,2,red,sequences/_practice_sequence_00.csv,,,,,,,,,,,0,0,0,0,0,68,68,56,,,,,,,,,,,,,,,,,,,,,294.0443538999998,,,,,,,,,,,,,294.0351977,294.0443538999998,294.0443538999998,294.2464436,294.48036539999976,3,0,0.4257417999997415,None,294.4812377999997,294.49992679999923,294.49992679999923,294.7055756,294.9065422999993,294.9014957999998,294.9015480999997,294.9065422999993,295.60108749999927,295.6076723999995,,,,,,,,,,,,,,,,,,,,,,,,,,,,,,,,,,,,,,,,,,,,,,,,,,,,,,,,,,,,,,,test002,motor,3,0,2024-07-31_20h06.37.355,ASRT_percept,2023.2.3,142.30722707185168,
,3,270,0,4,red,sequences/_practice_sequence_00.csv,,,,,,,,,,,0,0,0,0,0,69,69,44,,,,,,,,,,,,,,,,,,,,,295.6076723999995,,,,,,,,,,,,,295.6021774999999,295.6076723999995,295.6076723999995,295.80901559999984,296.2300054999996,4,1,0.6145253999993656,None,296.2307787999998,296.23787039999934,296.23787039999934,296.45404699999926,296.67373659999976,296.6613865999998,296.6614918999994,296.67373659999976,297.36532929999976,,,,,,,,,,,,,,,,,,,,,,,,,,,,,,,,,,,,,,,,,,,,,,,,,,,,,,,,,,,,,,,,test002,motor,3,0,2024-07-31_20h06.37.355,ASRT_percept,2023.2.3,142.30722707185168,
,3,270,0,4,red,sequences/_practice_sequence_00.csv,,,,,,,,,,,0,0,0,0,0,70,70,80,,,,,,,,,,,,,,,,,,,,,297.37544889999936,,,,,,,,,,,,,297.36620159999984,297.37544889999936,297.37544889999936,297.5721232999995,297.78152950000003,4,1,0.39731680000022607,None,297.7828649999992,297.7969915999993,297.7969915999993,298.0154376999999,298.2209874,298.2144163999992,298.2144994999999,298.2209874,298.9144460999996,298.91998389999935,,,,,,,,,,,,,,,,,,,,,,,,,,,,,,,,,,,,,,,,,,,,,,,,,,,,,,,,,,,,,,,test002,motor,3,0,2024-07-31_20h06.37.355,ASRT_percept,2023.2.3,142.30722707185168,
,1,90,2,2,red,sequences/_practice_sequence_00.csv,,,,,,,,,,,0,0,0,0,0,71,71,52,,,,,,,,,,,,,,,,,,,,,298.91998389999935,,,,,,,,,,,,,298.9151964999992,298.91998389999935,298.91998389999935,299.1238651999993,299.4161910999992,2,1,0.49183350000021164,None,299.41673919999994,299.4224676999993,299.4224676999993,299.62879019999946,299.8368123,299.83050809999986,299.8305399999999,299.8368123,300.5306916999998,,,,,,,,,,,,,,,,,,,,,,,,,,,,,,,,,,,,,,,,,,,,,,,,,,,,,,,,,,,,,,,,test002,motor,3,0,2024-07-31_20h06.37.355,ASRT_percept,2023.2.3,142.30722707185168,
,2,180,3,1,red,sequences/_practice_sequence_00.csv,,,,,,,,,,,0,0,0,0,0,72,72,53,,,,,,,,,,,,,,,,,,,,,300.5367417999996,,,,,,,,,,,,,300.5315600999993,300.5367417999996,300.5367417999996,300.7401237999993,301.1541017999998,1,1,0.6140504000004512,None,301.15496669999993,301.16188799999964,301.16188799999964,301.3778378999996,301.58662189999995,301.5799516999996,301.57998150000003,301.58662189999995,302.2812329999997,,,,,,,,,,,,,,,,,,,,,,,,,,,,,,,,,,,,,,,,,,,,,,,,,,,,,,,,,,,,,,,,test002,motor,3,0,2024-07-31_20h06.37.355,ASRT_percept,2023.2.3,142.30722707185168,
,2,180,3,1,red,sequences/_practice_sequence_00.csv,,,,,,,,,,,0,0,0,0,0,73,73,31,,,,,,,,,,,,,,,,,,,,,302.28777719999925,,,,,,,,,,,,,302.28201249999984,302.28777719999925,302.28777719999925,302.4897375999999,302.7754734,1,1,0.48155399999996007,None,302.7758735999996,302.7808185999993,302.7808185999993,302.9894803999996,303.20203820000006,303.1940906,303.1941649999999,303.20203820000006,303.89911929999926,,,,,,,,,,,,,,,,,,,,,,,,,,,,,,,,,,,,,,,,,,,,,,,,,,,,,,,,,,,,,,,,test002,motor,3,0,2024-07-31_20h06.37.355,ASRT_percept,2023.2.3,142.30722707185168,
,1,90,2,2,red,sequences/_practice_sequence_00.csv,,,,,,,,,,,0,0,0,0,0,74,74,20,,,,,,,,,,,,,,,,,,,,,303.9058963999996,,,,,,,,,,,,,303.9003488999997,303.9058963999996,303.9058963999996,304.10722629999964,304.44547879999936,2,1,0.5351857000005111,None,304.4463876,304.45343799999955,304.45343799999955,304.65573499999937,304.8667427999999,304.8592332999997,304.8592982,304.8667427999999,305.5656341999993,,,,,,,,,,,,,,,,,,,,,,,,,,,,,,,,,,,,,,,,,,,,,,,,,,,,,,,,,,,,,,,,test002,motor,3,0,2024-07-31_20h06.37.355,ASRT_percept,2023.2.3,142.30722707185168,
,0,0,1,3,red,sequences/_practice_sequence_00.csv,,,,,,,,,,,0,0,0,0,0,75,75,5,,,,,,,,,,,,,,,,,,,,,305.5724455999998,,,,,,,,,,,,,305.56602849999945,305.5724455999998,305.5724455999998,305.7739974999995,306.1462554,4,0,0.5695846999997229,None,306.14713369999936,306.15862689999994,306.15862689999994,306.38711349999994,306.5796258999999,306.57399819999955,306.57404210000004,306.5796258999999,307.27461029999995,307.2830103999995,,,,,,,,,,,,,,,,,,,,,,,,,,,,,,,,,,,,,,,,,,,,,,,,,,,,,,,,,,,,,,,test002,motor,3,0,2024-07-31_20h06.37.355,ASRT_percept,2023.2.3,142.30722707185168,
,2,180,3,1,red,sequences/_practice_sequence_00.csv,,,,,,,,,,,0,0,0,0,0,76,76,33,,,,,,,,,,,,,,,,,,,,,307.2830103999995,,,,,,,,,,,,,307.2753075999999,307.2830103999995,307.2830103999995,307.4823357999994,307.6868119999999,1,1,0.39506640000035986,None,307.6875642999994,307.69390639999983,307.69390639999983,307.8993682999999,308.1088396999994,308.1029269999999,308.1030762999999,308.1088396999994,308.8040869999995,,,,,,,,,,,,,,,,,,,,,,,,,,,,,,,,,,,,,,,,,,,,,,,,,,,,,,,,,,,,,,,,test002,motor,3,0,2024-07-31_20h06.37.355,ASRT_percept,2023.2.3,142.30722707185168,
,3,270,0,4,red,sequences/_practice_sequence_00.csv,,,,,,,,,,,0,0,0,0,0,77,77,28,,,,,,,,,,,,,,,,,,,,,308.8128453999998,,,,,,,,,,,,,308.80550029999995,308.8128453999998,308.8128453999998,309.01018789999944,309.15576079999937,1,0,0.33437159999994037,None,309.1578706,309.1738655999998,309.1738655999998,309.3900116999994,309.5934479999996,309.5870568999999,309.58711519999997,309.5934479999996,310.29008389999944,,,,,,,,,,,,,,,,,,,,,,,,,,,,,,,,,,,,,,,,,,,,,,,,,,,,,,,,,,,,,,,,test002,motor,3,0,2024-07-31_20h06.37.355,ASRT_percept,2023.2.3,142.30722707185168,
,0,0,1,3,red,sequences/_practice_sequence_00.csv,,,,,,,,,,,0,0,0,0,0,78,78,36,,,,,,,,,,,,,,,,,,,,,310.30025399999977,,,,,,,,,,,,,310.29112239999995,310.30025399999977,310.30025399999977,310.50334269999985,310.7943403999998,3,1,0.48501499999929365,None,310.7954973999995,310.8081244999994,310.8081244999994,311.00543560000006,311.2257835999999,311.21477119999963,311.2148499999994,311.2257835999999,311.9171319999996,,,,,,,,,,,,,,,,,,,,,,,,,,,,,,,,,,,,,,,,,,,,,,,,,,,,,,,,,,,,,,,,test002,motor,3,0,2024-07-31_20h06.37.355,ASRT_percept,2023.2.3,142.30722707185168,
,2,180,3,1,red,sequences/_practice_sequence_00.csv,,,,,,,,,,,0,0,0,0,0,79,79,34,,,,,,,,,,,,,,,,,,,,,311.92510289999973,,,,,,,,,,,,,311.9176260999993,311.92510289999973,311.92510289999973,312.1285977999996,312.37347899999986,1,1,0.43689549999999144,None,312.3744594,312.3816438999993,312.3816438999993,312.57949409999947,312.79625919999944,312.7900288999999,312.79006519999984,312.79625919999944,313.4926154999994,,,,,,,,,,,,,,,,,,,,,,,,,,,,,,,,,,,,,,,,,,,,,,,,,,,,,,,,,,,,,,,,test002,motor,3,0,2024-07-31_20h06.37.355,ASRT_percept,2023.2.3,142.30722707185168,
,1,90,2,2,red,sequences/_practice_sequence_00.csv,,,,,,,,,,,0,0,0,0,0,80,80,35,,,,,,,,,,,,,,,,,,,,,313.5091660999997,,,,,,,,,,,,,313.49419149999994,313.5091660999997,313.5091660999997,313.70579009999983,313.91494729999977,3,0,0.39254410000012285,None,313.91636649999964,313.9360624000001,313.9360624000001,314.1870922999997,314.38544379999985,314.3796591,314.3797234999993,314.38544379999985,315.08040899999924,315.08639330000005,,,,,,,,,,,,,,,,,,,,,,,,,,,,,,,,,,,,,,,,,,,,,,,,,,,,,,,,,,,,,,,test002,motor,3,0,2024-07-31_20h06.37.355,ASRT_percept,2023.2.3,142.30722707185168,
,0,0,1,3,red,sequences/_practice_sequence_00.csv,,,,,,,,,,,0,0,0,0,0,81,81,29,,,,,,,,,,,,,,,,,,,,,315.08639330000005,,,,,,,,,,,,,315.0809597999996,315.08639330000005,315.08639330000005,315.28797789999953,315.5254847999995,3,1,0.4333351999994193,None,315.5259384000001,315.5318486999995,315.5318486999995,315.7396366999992,315.9475345999999,315.94145320000007,315.9414852,315.9475345999999,316.6428741999998,,,,,,,,,,,,,,,,,,,,,,,,,,,,,,,,,,,,,,,,,,,,,,,,,,,,,,,,,,,,,,,,test002,motor,3,0,2024-07-31_20h06.37.355,ASRT_percept,2023.2.3,142.30722707185168,
,2,180,3,1,red,sequences/_practice_sequence_00.csv,,,,,,,,,,,0,0,0,0,0,82,82,71,,,,,,,,,,,,,,,,,,,,,316.6532380999997,,,,,,,,,,,,,316.6436199,316.6532380999997,316.6532380999997,316.8571822999993,317.0815010999995,1,1,0.4216822999997021,None,317.08205029999954,317.09081089999927,317.09081089999927,317.3012528999998,317.5122769999998,317.50522419999925,317.50529879999976,317.5122769999998,318.2054681999998,318.21267649999936,,,,,,,,,,,,,,,,,,,,,,,,,,,,,,,,,,,,,,,,,,,,,,,,,,,,,,,,,,,,,,,test002,motor,3,0,2024-07-31_20h06.37.355,ASRT_percept,2023.2.3,142.30722707185168,
,2,180,3,1,red,sequences/_practice_sequence_00.csv,,,,,,,,,,,0,0,0,0,0,83,83,24,,,,,,,,,,,,,,,,,,,,,318.21267649999936,,,,,,,,,,,,,318.2060428999994,318.21267649999936,318.21267649999936,318.4133704999995,318.66184689999955,1,1,0.442180100000769,None,318.66296280000006,318.67252709999957,318.67252709999957,318.87679729999945,319.08498939999936,319.07709759999943,319.07713129999956,319.08498939999936,319.7787568999993,,,,,,,,,,,,,,,,,,,,,,,,,,,,,,,,,,,,,,,,,,,,,,,,,,,,,,,,,,,,,,,,test002,motor,3,0,2024-07-31_20h06.37.355,ASRT_percept,2023.2.3,142.30722707185168,
,1,90,2,2,red,sequences/_practice_sequence_00.csv,,,,,,,,,,,0,0,0,0,0,84,84,45,,,,,,,,,,,,,,,,,,,,,319.78918539999995,,,,,,,,,,,,,319.7799680999997,319.78918539999995,319.78918539999995,319.98923449999984,320.2658072999993,2,1,0.47103270000025077,None,320.26678549999997,320.27612580000005,320.27612580000005,320.4760779999997,320.68609109999943,320.6816222999996,320.6816614999998,320.68609109999943,321.38638639999954,,,,,,,,,,,,,,,,,,,,,,,,,,,,,,,,,,,,,,,,,,,,,,,,,,,,,,,,,,,,,,,,test002,motor,3,0,2024-07-31_20h06.37.355,ASRT_percept,2023.2.3,142.30722707185168,
