block_type,unitx,trial_type,frequency_category,rt,n,correctn,acc,sid,tasktype
random,R,random,high,383.439585184937,46,44,0.956521739130435,sub101,motor
random,R,random,low,422.865383333071,15,13,0.866666666666667,sub101,motor
practice,P,random,high,529.210124999837,232,225,0.969827586206897,sub101,motor
practice,P,random,low,538.225763636795,53,52,0.981132075471698,sub101,motor
learning,1,random,high,524.955959722017,120,117,0.975,sub101,motor
learning,1,random,low,524.773049998476,18,18,1,sub101,motor
learning,1,regular,high,499.677947220941,197,196,0.99492385786802,sub101,motor
learning,2,random,high,470.782447142743,113,104,0.920353982300885,sub101,motor
learning,2,random,low,470.946245455046,33,29,0.878787878787879,sub101,motor
learning,2,regular,high,354.068707894552,199,189,0.949748743718593,sub101,motor
learning,3,random,high,439.331398528713,116,111,0.956896551724138,sub101,motor
learning,3,random,low,469.876137500857,33,31,0.939393939393939,sub101,motor
learning,3,regular,high,418.284042105561,198,190,0.95959595959596,sub101,motor
learning,4,random,high,472.308601388856,123,117,0.951219512195122,sub101,motor
learning,4,random,low,484.133072727259,30,26,0.866666666666667,sub101,motor
learning,4,regular,high,430.709583334141,198,192,0.96969696969697,sub101,motor
testing,T,random,high,388.930188571041,126,119,0.944444444444444,sub101,motor
testing,T,random,low,404.500786364885,28,27,0.964285714285714,sub101,motor
testing,T,regular,high,360.096577777868,199,191,0.959798994974874,sub101,motor
random,R,random,high,393.052251666666,47,42,0.893617021276596,sub104,motor
random,R,random,low,381.2025416667,7,6,0.857142857142857,sub104,motor
practice,P,random,high,508.432985526325,272,267,0.981617647058824,sub104,motor
practice,P,random,low,488.29873000002,38,36,0.947368421052632,sub104,motor
learning,1,random,high,492.02460135133,114,111,0.973684210526316,sub104,motor
learning,1,random,low,488.750999999945,32,30,0.9375,sub104,motor
learning,1,regular,high,464.087220588206,198,195,0.984848484848485,sub104,motor
learning,2,random,high,490.478255263174,127,120,0.944881889763779,sub104,motor
learning,2,random,low,491.559050000046,26,25,0.961538461538461,sub104,motor
learning,2,regular,high,471.284788888953,196,185,0.943877551020408,sub104,motor
learning,3,random,high,500.917111842096,115,109,0.947826086956522,sub104,motor
learning,3,random,low,500.417094444351,26,25,0.961538461538461,sub104,motor
learning,3,regular,high,472.103411111044,191,184,0.963350785340314,sub104,motor
learning,4,random,high,486.234875675662,134,130,0.970149253731343,sub104,motor
learning,4,random,low,478.337777777799,20,20,1,sub104,motor
learning,4,regular,high,462.879865000014,200,198,0.99,sub104,motor
testing,T,random,high,392.147293421096,120,113,0.941666666666667,sub104,motor
testing,T,random,low,391.576216666635,20,18,0.9,sub104,motor
testing,T,regular,high,372.072786111226,198,189,0.954545454545455,sub104,motor
random,R,random,high,400.378435417376,41,38,0.926829268292683,sub105,motor
random,R,random,low,391.697270001168,14,12,0.857142857142857,sub105,motor
practice,P,random,high,589.140621051755,256,247,0.96484375,sub105,motor
practice,P,random,low,615.109780000057,49,47,0.959183673469388,sub105,motor
learning,1,random,high,575.427882432229,128,121,0.9453125,sub105,motor
learning,1,random,low,607.518362499832,19,19,1,sub105,motor
learning,1,regular,high,561.930362500061,198,194,0.97979797979798,sub105,motor
learning,2,random,high,572.082813513663,129,124,0.961240310077519,sub105,motor
learning,2,random,low,633.40772999909,24,24,1,sub105,motor
learning,2,regular,high,553.842594444682,196,194,0.989795918367347,sub105,motor
learning,3,random,high,536.015156579245,127,122,0.960629921259842,sub105,motor
learning,3,random,low,569.564187498145,22,21,0.954545454545455,sub105,motor
learning,3,regular,high,529.029660526392,200,195,0.975,sub105,motor
learning,4,random,high,558.264544285755,128,125,0.9765625,sub105,motor
learning,4,random,low,616.886258333883,14,13,0.928571428571429,sub105,motor
learning,4,regular,high,518.967458332352,199,194,0.974874371859297,sub105,motor
testing,T,random,high,419.083318421384,128,120,0.9375,sub105,motor
testing,T,random,low,437.822238888556,26,25,0.961538461538461,sub105,motor
testing,T,regular,high,400.565269444996,200,195,0.975,sub105,motor
random,R,random,high,399.913880554474,37,36,0.972972972972973,sub128,motor
random,R,random,low,419.88647083114,18,18,1,sub128,motor
practice,P,random,high,605.104826002207,160,139,0.86875,sub128,motor
practice,P,random,low,590.407393479836,118,103,0.872881355932204,sub128,motor
learning,1,random,high,581.260789583818,83,74,0.891566265060241,sub128,motor
learning,1,random,low,600.008557143502,60,54,0.9,sub128,motor
learning,1,regular,high,589.711227777217,196,184,0.938775510204082,sub128,motor
learning,2,random,high,621.508757999982,101,96,0.95049504950495,sub128,motor
learning,2,random,low,626.350982606907,58,55,0.948275862068965,sub128,motor
learning,2,regular,high,579.760560526522,196,183,0.933673469387755,sub128,motor
learning,3,random,high,638.342233332575,98,94,0.959183673469388,sub128,motor
learning,3,random,low,628.23683749848,58,52,0.896551724137931,sub128,motor
learning,3,regular,high,592.361141665606,195,186,0.953846153846154,sub128,motor
learning,4,random,high,640.1204099998,74,72,0.972972972972973,sub128,motor
learning,4,random,low,641.53146363771,70,63,0.9,sub128,motor
learning,4,regular,high,582.735086841766,193,189,0.979274611398964,sub128,motor
testing,T,random,high,414.794741668326,19,18,0.947368421052632,sub128,motor
testing,T,random,low,444.922922225184,10,10,1,sub128,motor
testing,T,regular,high,399.044269999043,40,39,0.975,sub128,motor
random,R,random,high,436.941175000811,52,51,0.980769230769231,sub101,percept
random,R,random,low,410.620366674266,7,7,1,sub101,percept
practice,P,random,high,511.131146430021,282,272,0.964539007092199,sub101,percept
practice,P,random,low,520.228824995381,27,27,1,sub101,percept
learning,1,random,high,523.474901221429,128,125,0.9765625,sub101,percept
learning,1,random,low,521.786599997237,21,20,0.952380952380952,sub101,percept
learning,1,regular,high,477.965769444482,197,191,0.969543147208122,sub101,percept
learning,2,random,high,471.551908334645,144,141,0.979166666666667,sub101,percept
learning,2,random,low,489.877558339989,12,11,0.916666666666667,sub101,percept
learning,2,regular,high,459.825881576858,199,191,0.959798994974874,sub101,percept
learning,3,random,high,461.230791025744,142,136,0.957746478873239,sub101,percept
learning,3,random,low,488.14904000028,13,13,1,sub101,percept
learning,3,regular,high,431.147408336983,198,193,0.974747474747475,sub101,percept
learning,4,random,high,474.155506577134,140,133,0.95,sub101,percept
learning,4,random,low,448.561733336343,10,10,1,sub101,percept
learning,4,regular,high,397.966228943245,195,187,0.958974358974359,sub101,percept
testing,T,random,high,386.701892682695,132,125,0.946969696969697,sub101,percept
testing,T,random,low,390.707158338046,10,10,1,sub101,percept
testing,T,regular,high,348.887444447125,199,195,0.979899497487437,sub101,percept
random,R,random,high,414.986136535355,49,47,0.959183673469388,sub102,percept
random,R,random,low,433.736928572346,11,10,0.909090909090909,sub102,percept
practice,P,random,high,544.196940277996,234,230,0.982905982905983,sub102,percept
practice,P,random,low,555.223216665278,51,51,1,sub102,percept
learning,1,random,high,551.651738887813,118,117,0.991525423728813,sub102,percept
learning,1,random,low,587.769712499115,26,25,0.961538461538461,sub102,percept
learning,1,regular,high,501.233143749232,197,193,0.979695431472081,sub102,percept
learning,2,random,high,512.982090278456,124,122,0.983870967741936,sub102,percept
learning,2,random,low,534.895787498196,24,23,0.958333333333333,sub102,percept
learning,2,regular,high,443.98622646986,199,198,0.994974874371859,sub102,percept
learning,3,random,high,501.006280555682,124,123,0.991935483870968,sub102,percept
learning,3,random,low,514.729089997854,28,24,0.857142857142857,sub102,percept
learning,3,regular,high,328.40436841951,199,194,0.974874371859297,sub102,percept
learning,4,random,high,501.336604167187,132,128,0.96969696969697,sub102,percept
learning,4,random,low,584.945005001646,24,24,1,sub102,percept
learning,4,regular,high,204.39777368263,199,195,0.979899497487437,sub102,percept
testing,T,random,high,395.274097142309,123,118,0.959349593495935,sub102,percept
testing,T,random,low,419.732254166471,22,21,0.954545454545455,sub102,percept
testing,T,regular,high,169.092683332565,199,193,0.969849246231156,sub102,percept
random,R,random,high,372.298196551849,50,50,1,sub103-2,percept
random,R,random,low,370.343158333374,8,8,1,sub103-2,percept
practice,P,random,high,463.855888461461,263,257,0.977186311787072,sub103-2,percept
practice,P,random,low,461.777127777875,38,36,0.947368421052632,sub103-2,percept
learning,1,random,high,454.918159459462,144,141,0.979166666666667,sub103-2,percept
learning,1,random,low,445.236392857364,18,18,1,sub103-2,percept
learning,1,regular,high,428.192155555836,198,196,0.98989898989899,sub103-2,percept
learning,2,random,high,426.943703947448,142,140,0.985915492957746,sub103-2,percept
learning,2,random,low,447.885658333538,13,13,1,sub103-2,percept
learning,2,regular,high,421.423310526112,200,197,0.985,sub103-2,percept
learning,3,random,high,428.970391025756,134,133,0.992537313432836,sub103-2,percept
learning,3,random,low,417.6722750002,16,16,1,sub103-2,percept
learning,3,regular,high,393.438471052832,198,194,0.97979797979798,sub103-2,percept
learning,4,random,high,451.198185897551,131,131,1,sub103-2,percept
learning,4,random,low,449.68106250019,22,22,1,sub103-2,percept
learning,4,regular,high,420.855665789388,200,196,0.98,sub103-2,percept
testing,T,random,high,369.705747297426,172,171,0.994186046511628,sub103-2,percept
testing,T,random,low,341.876505555774,27,26,0.962962962962963,sub103-2,percept
testing,T,regular,high,351.343175000011,79,75,0.949367088607595,sub103-2,percept
random,R,random,high,400.702787993941,48,47,0.979166666666667,sub107,percept
random,R,random,low,385.39165000215,12,12,1,sub107,percept
practice,P,random,high,587.494120263727,246,231,0.939024390243902,sub107,percept
practice,P,random,low,602.788650004765,59,56,0.949152542372881,sub107,percept
learning,1,random,high,605.000515716217,116,111,0.956896551724138,sub107,percept
learning,1,random,low,612.145554565359,33,28,0.848484848484848,sub107,percept
learning,1,regular,high,533.149152623465,199,194,0.974874371859297,sub107,percept
learning,2,random,high,549.447452702962,127,121,0.952755905511811,sub107,percept
learning,2,random,low,583.883887495176,21,19,0.904761904761905,sub107,percept
learning,2,regular,high,504.306731574041,198,183,0.924242424242424,sub107,percept
learning,3,random,high,533.154178370652,132,124,0.939393939393939,sub107,percept
learning,3,random,low,560.492264289808,17,16,0.941176470588235,sub107,percept
learning,3,regular,high,501.450147214604,198,187,0.944444444444444,sub107,percept
learning,4,random,high,548.027514865484,129,119,0.922480620155039,sub107,percept
learning,4,random,low,575.313962497603,19,19,1,sub107,percept
learning,4,regular,high,502.476855886498,197,186,0.944162436548223,sub107,percept
testing,T,random,high,366.763711111465,112,110,0.982142857142857,sub107,percept
testing,T,random,low,368.213827779982,24,23,0.958333333333333,sub107,percept
testing,T,regular,high,358.672986115885,199,193,0.969849246231156,sub107,percept
random,R,random,high,475.100319643908,49,49,1,sub128,percept
random,R,random,low,466.257025000232,14,14,1,sub128,percept
practice,P,random,high,563.633177775046,231,222,0.961038961038961,sub128,percept
practice,P,random,low,528.834208331925,63,58,0.920634920634921,sub128,percept
learning,1,random,high,623.198544445687,120,117,0.975,sub128,percept
learning,1,random,low,652.010990909978,25,23,0.92,sub128,percept
learning,1,regular,high,599.695161763949,194,186,0.958762886597938,sub128,percept
learning,2,random,high,614.141216667324,125,119,0.952,sub128,percept
learning,2,random,low,634.96976363769,28,25,0.892857142857143,sub128,percept
learning,2,regular,high,596.986226317791,190,179,0.942105263157895,sub128,percept
learning,3,random,high,637.704716176171,128,125,0.9765625,sub128,percept
learning,3,random,low,645.124359090749,26,26,1,sub128,percept
learning,3,regular,high,621.084852942766,191,186,0.973821989528796,sub128,percept
learning,4,random,high,657.868634721833,110,104,0.945454545454546,sub128,percept
learning,4,random,low,617.896836367436,28,28,1,sub128,percept
learning,4,regular,high,629.098634374714,190,180,0.947368421052632,sub128,percept
testing,T,random,high,449.632463233309,116,113,0.974137931034483,sub128,percept
testing,T,random,low,453.711174997443,16,14,0.875,sub128,percept
testing,T,regular,high,431.252042499546,197,189,0.959390862944162,sub128,percept
