percept_testing_seq_files,orientation_degrees,orientation_index,correct_answer_index,correct_answer_direction,arrow_color,init_random_block.thisRepN,init_random_block.thisTrialN,init_random_block.thisN,init_random_block.thisIndex,practice_blocks.thisRepN,practice_blocks.thisTrialN,practice_blocks.thisN,practice_blocks.thisIndex,learning_trials.thisRepN,learning_trials.thisTrialN,learning_trials.thisN,learning_trials.thisIndex,percept_testing_trials.thisRepN,percept_testing_trials.thisTrialN,percept_testing_trials.thisN,percept_testing_trials.thisIndex,percept_testing_loop.thisRepN,percept_testing_loop.thisTrialN,percept_testing_loop.thisN,percept_testing_loop.thisIndex,thisRow.t,notes,welcomescreen.started,spaceship.started,welcometext.started,welcome_end.started,welcomescreen.stopped,welcome_end.keys,welcome_end.rt,welcome_end.duration,pratice_instruction.started,spaceship_rotated.started,rotation_instruction.started,key_resp_2.started,pratice_instruction.stopped,key_resp_2.keys,key_resp_2.rt,key_resp_2.duration,learning_instruction.started,spaceship_rotated01.started,rotation_instruction01.started,key_resp_02.started,learning_instruction.stopped,key_resp_02.keys,key_resp_02.rt,key_resp_02.duration,percept_testing_instruction.started,spaceship4.started,key_resp_5.started,percept_testing_instruction_text.started,percept_testing_instruction.stopped,key_resp_5.keys,key_resp_5.rt,key_resp_5.duration,pre_section.started,fixation_init.started,pre_section.stopped,trial.started,arrowhead.started,key_resp.started,arrowhead.stopped,trial.stopped,key_resp.keys,key_resp.corr,key_resp.rt,key_resp.duration,fixation.started,cross_2.started,cross_2.stopped,fixation.stopped,RSI.started,text_2.started,RSI.stopped,text_2.stopped,post_section.started,feedback_post_section.started,key_resp_4.started,post_section.stopped,key_resp_4.keys,key_resp_4.rt,key_resp_4.duration,fixation_init.stopped,key_resp.stopped,participant,learning_type,seqID,debug,date,expName,psychopyVersion,frameRate,expStart,
,,,,,,,,,,,,,,,,,,,,,,,,,,,,0.011027799999283161,0.01632190000054834,0.01632190000054834,0.01632190000054834,2.170059300000503,space,2.1490248999998585,None,,,,,,,,,,,,,,,,,,,,,,,,,,,,,,,,,,,,,,,,,,,,,,,,,,,,,,sub0103,percept,6,0,2024-08-07_16h35.59.445,ASRT_percept,2023.2.3,151.47636438491008,2024-08-07 16h36.28.124898 +0800,
,,,,,,,,,,,,,,,,,,,,,,,,,,,,,,,,,,,,2.180122499999925,2.183670300000813,2.183670300000813,2.183670300000813,2.704578599999877,space,0.5164115000006859,None,,,,,,,,,,,,,,,,,,,,,,,,,,,,,,,,,,,,,,,,,,,,,,sub0103,percept,6,0,2024-08-07_16h35.59.445,ASRT_percept,2023.2.3,151.47636438491008,2024-08-07 16h36.28.124898 +0800,
,,,,,,,,,,,,,,,,,,,,,,,,,,,,,,,,,,,,,,,,,,,,2.7213508000004367,2.7275141999998596,2.7275141999998596,2.7275141999998596,3.262625299999854,space,0.5328289000008226,None,,,,,,,,,,,,,,,,,,,,,,,,,,,,,,,,,,,,,,sub0103,percept,6,0,2024-08-07_16h35.59.445,ASRT_percept,2023.2.3,151.47636438491008,2024-08-07 16h36.28.124898 +0800,
,,,,,,,,,,,,,,,,,,,,,,,,,,,,,,,,,,,,,,,,,,,,,,,,,,,,3.282071999999971,3.28551730000072,3.28551730000072,3.28551730000072,10.019507099999828,space,6.731062799999563,None,,,,,,,,,,,,,,,,,,,,,,,,,,,,,,sub0103,percept,6,0,2024-08-07_16h35.59.445,ASRT_percept,2023.2.3,151.47636438491008,2024-08-07 16h36.28.124898 +0800,
sequences/sub0103_percepttesting_sequence_00.csv,270,3,3,1,red,,,,,,,,,,,,,0,0,0,0,0,0,0,0,11.054094499999337,,,,,,,,,,,,,,,,,,,,,,,,,,,,,,,,,,10.053583999999319,10.059636699999828,11.025505300000077,11.049670599999445,11.054094499999337,11.054094499999337,11.252870399999665,11.400333800000226,1,1,0.34118950000083714,None,11.401542699999482,11.406128399999943,11.46088090000012,11.455086399999345,11.455122200000915,11.46088090000012,12.155943699999625,,,,,,,,,,,sub0103,percept,6,0,2024-08-07_16h35.59.445,ASRT_percept,2023.2.3,151.47636438491008,2024-08-07 16h36.28.124898 +0800,
sequences/sub0103_percepttesting_sequence_00.csv,90,1,1,3,red,,,,,,,,,,,,,0,0,0,0,0,1,1,1,12.162458000000697,,,,,,,,,,,,,,,,,,,,,,,,,,,,,,,,,,,,,12.156636199999411,12.162458000000697,12.162458000000697,12.363331799999287,12.628317099999549,3,1,0.46040370000082476,None,12.628597400000217,12.634866200000033,12.690070099999502,12.68427100000008,12.684299099999407,12.690070099999502,13.384992799999964,,,,,,,,,,,sub0103,percept,6,0,2024-08-07_16h35.59.445,ASRT_percept,2023.2.3,151.47636438491008,2024-08-07 16h36.28.124898 +0800,
sequences/sub0103_percepttesting_sequence_00.csv,270,3,3,1,red,,,,,,,,,,,,,0,0,0,0,0,2,2,2,13.39154840000083,,,,,,,,,,,,,,,,,,,,,,,,,,,,,,,,,,,,,13.385711900000388,13.39154840000083,13.39154840000083,13.593832000000475,13.798202800000581,1,1,0.39993370000047435,None,13.799093400000856,13.806776900000841,13.857409500000358,13.851332700000057,13.85136600000078,13.857409500000358,14.551785400000881,,,,,,,,,,,sub0103,percept,6,0,2024-08-07_16h35.59.445,ASRT_percept,2023.2.3,151.47636438491008,2024-08-07 16h36.28.124898 +0800,
sequences/sub0103_percepttesting_sequence_00.csv,0,0,0,4,red,,,,,,,,,,,,,0,0,0,0,0,3,3,3,14.559058599999844,,,,,,,,,,,,,,,,,,,,,,,,,,,,,,,,,,,,,14.552193699999407,14.559058599999844,14.559058599999844,14.76038200000039,14.971002899999803,4,1,0.40593710000030114,None,14.971922599999743,14.980345699999816,15.03128629999992,15.025790600000619,15.025841099999525,15.03128629999992,15.725722999999562,15.73183760000029,,,,,,,,,,sub0103,percept,6,0,2024-08-07_16h35.59.445,ASRT_percept,2023.2.3,151.47636438491008,2024-08-07 16h36.28.124898 +0800,
sequences/sub0103_percepttesting_sequence_00.csv,270,3,3,1,red,,,,,,,,,,,,,0,0,0,0,0,4,4,4,15.73183760000029,,,,,,,,,,,,,,,,,,,,,,,,,,,,,,,,,,,,,15.726278500000262,15.73183760000029,15.73183760000029,15.932875099999364,16.133733700000448,1,1,0.3969476999991457,None,16.13504219999959,16.14332269999977,16.190132400000948,16.183949800000846,16.183987700000216,16.190132400000948,16.88576590000048,,,,,,,,,,,sub0103,percept,6,0,2024-08-07_16h35.59.445,ASRT_percept,2023.2.3,151.47636438491008,2024-08-07 16h36.28.124898 +0800,
sequences/sub0103_percepttesting_sequence_00.csv,180,2,2,2,white,,,,,,,,,,,,,0,0,0,0,0,5,5,5,16.89529709999988,,,,,,,,,,,,,,,,,,,,,,,,,,,,,,,,,,,,,16.8866749000008,16.89529709999988,16.89529709999988,17.10031600000002,17.29175209999994,2,1,0.38967740000043705,None,17.292736200000945,17.298966099999234,17.3497969,17.344143300000724,17.344182999999248,17.3497969,18.04798529999971,,,,,,,,,,,sub0103,percept,6,0,2024-08-07_16h35.59.445,ASRT_percept,2023.2.3,151.47636438491008,2024-08-07 16h36.28.124898 +0800,
sequences/sub0103_percepttesting_sequence_00.csv,0,0,0,4,red,,,,,,,,,,,,,0,0,0,0,0,6,6,6,18.053992799999833,,,,,,,,,,,,,,,,,,,,,,,,,,,,,,,,,,,,,18.048512900000787,18.053992799999833,18.053992799999833,18.259938400000465,18.443128499999148,4,1,0.3864522999992914,None,18.443698799999765,18.45090700000037,18.504819800000405,18.498326599999928,18.498387699999512,18.504819800000405,19.199104799999986,,,,,,,,,,,sub0103,percept,6,0,2024-08-07_16h35.59.445,ASRT_percept,2023.2.3,151.47636438491008,2024-08-07 16h36.28.124898 +0800,
sequences/sub0103_percepttesting_sequence_00.csv,90,1,1,3,white,,,,,,,,,,,,,0,0,0,0,0,7,7,7,19.20685770000091,,,,,,,,,,,,,,,,,,,,,,,,,,,,,,,,,,,,,19.200056899999254,19.20685770000091,19.20685770000091,19.407199699999182,19.56948999999986,3,1,0.35567919999994047,None,19.570367099999203,19.577653000000282,19.627997100000357,19.62127540000074,19.621298699999898,19.627997100000357,20.322987400000784,,,,,,,,,,,sub0103,percept,6,0,2024-08-07_16h35.59.445,ASRT_percept,2023.2.3,151.47636438491008,2024-08-07 16h36.28.124898 +0800,
sequences/sub0103_percepttesting_sequence_00.csv,180,2,2,2,red,,,,,,,,,,,,,0,0,0,0,0,8,8,8,20.33244519999971,,,,,,,,,,,,,,,,,,,,,,,,,,,,,,,,,,,,,20.323882599999706,20.33244519999971,20.33244519999971,20.536943200000678,20.679003100000045,2,1,0.3421906999992643,None,20.67970140000034,20.684064999999464,20.738882800000283,20.732682899999418,20.73271989999921,20.738882800000283,21.434284999999363,,,,,,,,,,,sub0103,percept,6,0,2024-08-07_16h35.59.445,ASRT_percept,2023.2.3,151.47636438491008,2024-08-07 16h36.28.124898 +0800,
sequences/sub0103_percepttesting_sequence_00.csv,0,0,0,4,white,,,,,,,,,,,,,0,0,0,0,0,9,9,9,21.445062900000266,,,,,,,,,,,,,,,,,,,,,,,,,,,,,,,,,,,,,21.435724400000254,21.445062900000266,21.445062900000266,21.648651400000745,21.813707799999975,4,1,0.36103240000011283,None,21.81530129999919,21.826179600000614,21.870397700000467,21.864421700000094,21.86446910000086,21.870397700000467,22.565111800000523,,,,,,,,,,,sub0103,percept,6,0,2024-08-07_16h35.59.445,ASRT_percept,2023.2.3,151.47636438491008,2024-08-07 16h36.28.124898 +0800,
sequences/sub0103_percepttesting_sequence_00.csv,180,2,2,2,red,,,,,,,,,,,,,0,0,0,0,0,10,10,10,22.57196979999935,,,,,,,,,,,,,,,,,,,,,,,,,,,,,,,,,,,,,22.56536059999962,22.57196979999935,22.57196979999935,22.774153000000297,22.97266590000072,2,1,0.3904588999994303,None,22.973495500000354,22.97935139999936,23.031311299999288,23.025077000000238,23.025125000000116,23.031311299999288,23.726138300000457,,,,,,,,,,,sub0103,percept,6,0,2024-08-07_16h35.59.445,ASRT_percept,2023.2.3,151.47636438491008,2024-08-07 16h36.28.124898 +0800,
sequences/sub0103_percepttesting_sequence_00.csv,270,3,3,1,white,,,,,,,,,,,,,0,0,0,0,0,11,11,11,23.734509899999466,,,,,,,,,,,,,,,,,,,,,,,,,,,,,,,,,,,,,23.72717659999944,23.734509899999466,23.734509899999466,23.932623099999546,24.012674100000368,1,1,0.2756037999988621,None,24.013683999999557,24.020712499999718,24.072473300000638,24.06685060000018,24.066921899999215,24.072473300000638,24.767608699999982,24.774852399999872,,,,,,,,,,sub0103,percept,6,0,2024-08-07_16h35.59.445,ASRT_percept,2023.2.3,151.47636438491008,2024-08-07 16h36.28.124898 +0800,
sequences/sub0103_percepttesting_sequence_00.csv,90,1,1,3,red,,,,,,,,,,,,,0,0,0,0,0,12,12,12,24.774852399999872,,,,,,,,,,,,,,,,,,,,,,,,,,,,,,,,,,,,,24.76833269999952,24.774852399999872,24.774852399999872,24.974646399999983,25.146531099999265,3,1,0.36521129999891855,None,25.14746809999997,25.158742800000255,25.204096100000243,25.198484799999278,25.1985394000003,25.204096100000243,25.89852819999942,25.904762500000288,,,,,,,,,,sub0103,percept,6,0,2024-08-07_16h35.59.445,ASRT_percept,2023.2.3,151.47636438491008,2024-08-07 16h36.28.124898 +0800,
sequences/sub0103_percepttesting_sequence_00.csv,180,2,2,2,white,,,,,,,,,,,,,0,0,0,0,0,13,13,13,25.904762500000288,,,,,,,,,,,,,,,,,,,,,,,,,,,,,,,,,,,,,25.89875740000025,25.904762500000288,25.904762500000288,26.106972600000518,26.253487399999358,2,1,0.33639709999988554,None,26.254610300000422,26.262206499999593,26.307860599999913,26.301516300000003,26.301562200000262,26.307860599999913,27.00286100000085,,,,,,,,,,,sub0103,percept,6,0,2024-08-07_16h35.59.445,ASRT_percept,2023.2.3,151.47636438491008,2024-08-07 16h36.28.124898 +0800,
sequences/sub0103_percepttesting_sequence_00.csv,90,1,1,3,red,,,,,,,,,,,,,0,0,0,0,0,14,14,14,27.009287200000472,,,,,,,,,,,,,,,,,,,,,,,,,,,,,,,,,,,,,27.00338659999943,27.009287200000472,27.009287200000472,27.210775900000954,27.426812800000334,3,1,0.4147013000001607,None,27.42709620000096,27.43377689999943,27.48821710000084,27.483812500000568,27.483831499999724,27.48821710000084,28.18439650000073,28.189935700000206,,,,,,,,,,sub0103,percept,6,0,2024-08-07_16h35.59.445,ASRT_percept,2023.2.3,151.47636438491008,2024-08-07 16h36.28.124898 +0800,
sequences/sub0103_percepttesting_sequence_00.csv,90,1,1,3,white,,,,,,,,,,,,,0,0,0,0,0,15,15,15,28.189935700000206,,,,,,,,,,,,,,,,,,,,,,,,,,,,,,,,,,,,,28.185024899999917,28.189935700000206,28.189935700000206,28.391547100000025,28.539632600000914,3,1,0.34258480000062264,None,28.53991479999968,28.54389699999956,28.6007026999996,28.59599680000065,28.596063999999387,28.6007026999996,29.296434300000328,29.304700500000763,,,,,,,,,,sub0103,percept,6,0,2024-08-07_16h35.59.445,ASRT_percept,2023.2.3,151.47636438491008,2024-08-07 16h36.28.124898 +0800,
sequences/sub0103_percepttesting_sequence_00.csv,90,1,1,3,red,,,,,,,,,,,,,0,0,0,0,0,16,16,16,29.304700500000763,,,,,,,,,,,,,,,,,,,,,,,,,,,,,,,,,,,,,29.297369300000355,29.304700500000763,29.304700500000763,29.509830000000875,29.658656699999483,3,1,0.34859509999841976,None,29.659346700000242,29.667010299999674,29.717575900000156,29.7118774999999,29.71191639999961,29.717575900000156,30.412049700000352,,,,,,,,,,,sub0103,percept,6,0,2024-08-07_16h35.59.445,ASRT_percept,2023.2.3,151.47636438491008,2024-08-07 16h36.28.124898 +0800,
sequences/sub0103_percepttesting_sequence_00.csv,0,0,0,4,white,,,,,,,,,,,,,0,0,0,0,0,17,17,17,30.419391699999323,,,,,,,,,,,,,,,,,,,,,,,,,,,,,,,,,,,,,30.412311000000045,30.419391699999323,30.419391699999323,30.620936499999516,30.734718199999406,4,1,0.310616900000241,None,30.73549710000043,30.74208770000041,30.79436429999987,30.787475099999938,30.78749550000066,30.79436429999987,31.48985680000078,,,,,,,,,,,sub0103,percept,6,0,2024-08-07_16h35.59.445,ASRT_percept,2023.2.3,151.47636438491008,2024-08-07 16h36.28.124898 +0800,
sequences/sub0103_percepttesting_sequence_00.csv,90,1,1,3,red,,,,,,,,,,,,,0,0,0,0,0,18,18,18,31.497360699999263,,,,,,,,,,,,,,,,,,,,,,,,,,,,,,,,,,,,,31.490704100000585,31.497360699999263,31.497360699999263,31.69734570000037,31.879499200000282,3,1,0.3742705999993632,None,31.880135299999893,31.884582099999534,31.9400241000003,31.934004200000345,31.93404030000056,31.9400241000003,32.63527020000038,,,,,,,,,,,sub0103,percept,6,0,2024-08-07_16h35.59.445,ASRT_percept,2023.2.3,151.47636438491008,2024-08-07 16h36.28.124898 +0800,
sequences/sub0103_percepttesting_sequence_00.csv,270,3,3,1,white,,,,,,,,,,,,,0,0,0,0,0,19,19,19,32.64295750000019,,,,,,,,,,,,,,,,,,,,,,,,,,,,,,,,,,,,,32.63626330000079,32.64295750000019,32.64295750000019,32.842164100000446,32.97218889999931,1,1,0.3244311000016751,None,32.97300759999962,32.97983489999933,33.03033119999964,33.02436239999952,33.02442449999944,33.03033119999964,33.72504769999978,,,,,,,,,,,sub0103,percept,6,0,2024-08-07_16h35.59.445,ASRT_percept,2023.2.3,151.47636438491008,2024-08-07 16h36.28.124898 +0800,
sequences/sub0103_percepttesting_sequence_00.csv,0,0,0,4,red,,,,,,,,,,,,,0,0,0,0,0,20,20,20,33.73214469999948,,,,,,,,,,,,,,,,,,,,,,,,,,,,,,,,,,,,,33.72574739999982,33.73214469999948,33.73214469999948,33.93328870000005,34.09434829999918,4,1,0.35575600000083796,None,34.094628799999555,34.09954300000027,34.15547920000063,34.14873799999987,34.14875419999953,34.15547920000063,34.84954570000082,,,,,,,,,,,sub0103,percept,6,0,2024-08-07_16h35.59.445,ASRT_percept,2023.2.3,151.47636438491008,2024-08-07 16h36.28.124898 +0800,
sequences/sub0103_percepttesting_sequence_00.csv,180,2,2,2,white,,,,,,,,,,,,,0,0,0,0,0,21,21,21,34.856806300000244,,,,,,,,,,,,,,,,,,,,,,,,,,,,,,,,,,,,,34.84981990000051,34.856806300000244,34.856806300000244,35.05817240000033,35.179490700000315,2,1,0.3155726999993931,None,35.18049459999929,35.18858349999937,35.23955449999994,35.233399000000645,35.23345460000019,35.23955449999994,35.933560400000715,,,,,,,,,,,sub0103,percept,6,0,2024-08-07_16h35.59.445,ASRT_percept,2023.2.3,151.47636438491008,2024-08-07 16h36.28.124898 +0800,
sequences/sub0103_percepttesting_sequence_00.csv,270,3,3,1,red,,,,,,,,,,,,,0,0,0,0,0,22,22,22,35.94207190000088,,,,,,,,,,,,,,,,,,,,,,,,,,,,,,,,,,,,,35.93481609999981,35.94207190000088,35.94207190000088,36.14089899999999,36.24804960000074,1,1,0.2978684000008798,None,36.24841790000028,36.25227020000057,36.30857979999928,36.30282690000058,36.30291050000051,36.30857979999928,37.002477899999576,37.00951039999927,,,,,,,,,,sub0103,percept,6,0,2024-08-07_16h35.59.445,ASRT_percept,2023.2.3,151.47636438491008,2024-08-07 16h36.28.124898 +0800,
sequences/sub0103_percepttesting_sequence_00.csv,90,1,1,3,white,,,,,,,,,,,,,0,0,0,0,0,23,23,23,37.00951039999927,,,,,,,,,,,,,,,,,,,,,,,,,,,,,,,,,,,,,37.00272760000007,37.00951039999927,37.00951039999927,37.210496100000455,37.40412289999949,3,1,0.38405880000027537,None,37.404746800000794,37.410536699999284,37.461308899999494,37.45526009999958,37.4554246000007,37.461308899999494,38.15579980000075,,,,,,,,,,,sub0103,percept,6,0,2024-08-07_16h35.59.445,ASRT_percept,2023.2.3,151.47636438491008,2024-08-07 16h36.28.124898 +0800,
sequences/sub0103_percepttesting_sequence_00.csv,270,3,3,1,red,,,,,,,,,,,,,0,0,0,0,0,24,24,24,38.162145500000406,,,,,,,,,,,,,,,,,,,,,,,,,,,,,,,,,,,,,38.15647270000045,38.162145500000406,38.162145500000406,38.363969399999405,38.559743399999206,1,1,0.39353940000000875,None,38.56030719999944,38.564538299999185,38.62002390000089,38.613808599999174,38.61383729999943,38.62002390000089,39.314424500000314,,,,,,,,,,,sub0103,percept,6,0,2024-08-07_16h35.59.445,ASRT_percept,2023.2.3,151.47636438491008,2024-08-07 16h36.28.124898 +0800,
sequences/sub0103_percepttesting_sequence_00.csv,0,0,0,4,white,,,,,,,,,,,,,0,0,0,0,0,25,25,25,39.32179550000001,,,,,,,,,,,,,,,,,,,,,,,,,,,,,,,,,,,,,39.314753599999676,39.32179550000001,39.32179550000001,39.52309500000047,39.62808100000075,4,1,0.29938769999898796,None,39.62853969999924,39.633701500000825,39.68920790000084,39.68384119999973,39.68388579999919,39.68920790000084,40.385279199999786,,,,,,,,,,,sub0103,percept,6,0,2024-08-07_16h35.59.445,ASRT_percept,2023.2.3,151.47636438491008,2024-08-07 16h36.28.124898 +0800,
sequences/sub0103_percepttesting_sequence_00.csv,0,0,0,4,red,,,,,,,,,,,,,0,0,0,0,0,26,26,26,40.395021800000904,,,,,,,,,,,,,,,,,,,,,,,,,,,,,,,,,,,,,40.38650740000048,40.395021800000904,40.395021800000904,40.60031899999922,40.74342869999964,4,1,0.345399499999985,None,40.74427769999966,40.74866680000014,40.80074579999928,40.79487909999989,40.794911000000866,40.80074579999928,41.49570780000067,,,,,,,,,,,sub0103,percept,6,0,2024-08-07_16h35.59.445,ASRT_percept,2023.2.3,151.47636438491008,2024-08-07 16h36.28.124898 +0800,
sequences/sub0103_percepttesting_sequence_00.csv,270,3,3,1,white,,,,,,,,,,,,,0,0,0,0,0,27,27,27,41.50285000000076,,,,,,,,,,,,,,,,,,,,,,,,,,,,,,,,,,,,,41.49636950000058,41.50285000000076,41.50285000000076,41.70413480000025,41.88014870000006,1,1,0.37228200000026845,None,41.881049800000255,41.885627300000124,41.94008910000048,41.93411360000027,41.934152699999686,41.94008910000048,42.63454300000012,42.641648599999826,,,,,,,,,,sub0103,percept,6,0,2024-08-07_16h35.59.445,ASRT_percept,2023.2.3,151.47636438491008,2024-08-07 16h36.28.124898 +0800,
sequences/sub0103_percepttesting_sequence_00.csv,0,0,0,4,red,,,,,,,,,,,,,0,0,0,0,0,28,28,28,42.641648599999826,,,,,,,,,,,,,,,,,,,,,,,,,,,,,,,,,,,,,42.634974200000215,42.641648599999826,42.641648599999826,42.84214079999947,42.9757611999994,4,1,0.32633330000135174,None,42.97627660000035,42.98071809999965,43.03685469999982,43.03027420000035,43.03029079999942,43.03685469999982,43.7316191000009,,,,,,,,,,,sub0103,percept,6,0,2024-08-07_16h35.59.445,ASRT_percept,2023.2.3,151.47636438491008,2024-08-07 16h36.28.124898 +0800,
sequences/sub0103_percepttesting_sequence_00.csv,180,2,2,2,white,,,,,,,,,,,,,0,0,0,0,0,29,29,29,43.73811960000057,,,,,,,,,,,,,,,,,,,,,,,,,,,,,,,,,,,,,43.732226199999786,43.73811960000057,43.73811960000057,43.939979999999196,44.132452199999534,2,1,0.3903267000005144,None,44.13329809999959,44.139907000000676,44.189534600000115,44.18402210000022,44.1840745999998,44.189534600000115,44.88546580000002,,,,,,,,,,,sub0103,percept,6,0,2024-08-07_16h35.59.445,ASRT_percept,2023.2.3,151.47636438491008,2024-08-07 16h36.28.124898 +0800,
sequences/sub0103_percepttesting_sequence_00.csv,180,2,2,2,red,,,,,,,,,,,,,0,0,0,0,0,30,30,30,44.890614600000845,,,,,,,,,,,,,,,,,,,,,,,,,,,,,,,,,,,,,44.88675949999924,44.890614600000845,44.890614600000845,45.09270250000009,45.325479400000404,2,1,0.42849700000078883,None,45.32640910000009,45.33386079999946,45.38359330000094,45.37718119999954,45.377202199999374,45.38359330000094,46.07918400000017,,,,,,,,,,,sub0103,percept,6,0,2024-08-07_16h35.59.445,ASRT_percept,2023.2.3,151.47636438491008,2024-08-07 16h36.28.124898 +0800,
sequences/sub0103_percepttesting_sequence_00.csv,90,1,1,3,white,,,,,,,,,,,,,0,0,0,0,0,31,31,31,46.089008700000704,,,,,,,,,,,,,,,,,,,,,,,,,,,,,,,,,,,,,46.07991899999979,46.089008700000704,46.089008700000704,46.293958100000964,46.43604079999932,3,1,0.33917079999991984,None,46.43735809999998,46.44306239999969,46.49520450000091,46.48919170000045,46.48924090000037,46.49520450000091,47.18960569999945,47.19616830000086,,,,,,,,,,sub0103,percept,6,0,2024-08-07_16h35.59.445,ASRT_percept,2023.2.3,151.47636438491008,2024-08-07 16h36.28.124898 +0800,
sequences/sub0103_percepttesting_sequence_00.csv,90,1,1,3,red,,,,,,,,,,,,,0,0,0,0,0,32,32,32,47.19616830000086,,,,,,,,,,,,,,,,,,,,,,,,,,,,,,,,,,,,,47.18986220000079,47.19616830000086,47.19616830000086,47.39828010000019,47.57224250000036,3,1,0.37077599999975064,None,47.57253139999921,47.57844010000008,47.63728169999922,47.6270884000005,47.627105100000335,47.63728169999922,48.32871460000024,,,,,,,,,,,sub0103,percept,6,0,2024-08-07_16h35.59.445,ASRT_percept,2023.2.3,151.47636438491008,2024-08-07 16h36.28.124898 +0800,
sequences/sub0103_percepttesting_sequence_00.csv,0,0,0,4,white,,,,,,,,,,,,,0,0,0,0,0,33,33,33,48.33612600000015,,,,,,,,,,,,,,,,,,,,,,,,,,,,,,,,,,,,,48.329528300000675,48.33612600000015,48.33612600000015,48.537150199999815,48.69206809999923,4,1,0.3501981000008527,None,48.69296860000031,48.70069110000077,48.75228100000095,48.74643230000038,48.74647600000026,48.75228100000095,49.44717870000022,,,,,,,,,,,sub0103,percept,6,0,2024-08-07_16h35.59.445,ASRT_percept,2023.2.3,151.47636438491008,2024-08-07 16h36.28.124898 +0800,
sequences/sub0103_percepttesting_sequence_00.csv,0,0,0,4,red,,,,,,,,,,,,,0,0,0,0,0,34,34,34,49.45335519999935,,,,,,,,,,,,,,,,,,,,,,,,,,,,,,,,,,,,,49.44744499999979,49.45335519999935,49.45335519999935,49.6549501999998,49.81796960000065,4,1,0.3593017000002874,None,49.81896710000001,49.824913899999956,49.87800050000078,49.87200420000045,49.87207259999923,49.87800050000078,50.57236069999999,,,,,,,,,,,sub0103,percept,6,0,2024-08-07_16h35.59.445,ASRT_percept,2023.2.3,151.47636438491008,2024-08-07 16h36.28.124898 +0800,
sequences/sub0103_percepttesting_sequence_00.csv,270,3,3,1,white,,,,,,,,,,,,,0,0,0,0,0,35,35,35,50.58389560000069,,,,,,,,,,,,,,,,,,,,,,,,,,,,,,,,,,,,,50.573672200000146,50.58389560000069,50.58389560000069,50.786981499999456,50.94308149999961,1,1,0.3566570999992109,None,50.94402020000052,50.95137600000089,51.00217039999916,50.99558280000019,50.99559960000079,51.00217039999916,51.69790810000086,,,,,,,,,,,sub0103,percept,6,0,2024-08-07_16h35.59.445,ASRT_percept,2023.2.3,151.47636438491008,2024-08-07 16h36.28.124898 +0800,
sequences/sub0103_percepttesting_sequence_00.csv,0,0,0,4,red,,,,,,,,,,,,,0,0,0,0,0,36,36,36,51.70327619999989,,,,,,,,,,,,,,,,,,,,,,,,,,,,,,,,,,,,,51.698849500000506,51.70327619999989,51.70327619999989,51.90488209999967,52.087078599999586,4,1,0.3767100000004575,None,52.08809990000009,52.09642150000036,52.1477047999997,52.14120770000045,52.141223900000114,52.1477047999997,52.84198540000034,,,,,,,,,,,sub0103,percept,6,0,2024-08-07_16h35.59.445,ASRT_percept,2023.2.3,151.47636438491008,2024-08-07 16h36.28.124898 +0800,
sequences/sub0103_percepttesting_sequence_00.csv,180,2,2,2,white,,,,,,,,,,,,,0,0,0,0,0,37,37,37,52.85004350000054,,,,,,,,,,,,,,,,,,,,,,,,,,,,,,,,,,,,,52.84271780000017,52.85004350000054,52.85004350000054,53.05050520000077,53.19295609999972,2,1,0.33913339999890013,None,53.19361140000001,53.199622800000725,53.25209770000038,53.246423500000674,53.246470500000214,53.25209770000038,53.94682060000014,53.953339400000914,,,,,,,,,,sub0103,percept,6,0,2024-08-07_16h35.59.445,ASRT_percept,2023.2.3,151.47636438491008,2024-08-07 16h36.28.124898 +0800,
sequences/sub0103_percepttesting_sequence_00.csv,180,2,2,2,red,,,,,,,,,,,,,0,0,0,0,0,38,38,38,53.953339400000914,,,,,,,,,,,,,,,,,,,,,,,,,,,,,,,,,,,,,53.9470794000008,53.953339400000914,53.953339400000914,54.15469780000058,54.39310970000042,2,1,0.434709400000429,None,54.39424870000039,54.401943500000925,54.4527863000003,54.44759979999981,54.44764740000028,54.4527863000003,55.14855940000052,,,,,,,,,,,sub0103,percept,6,0,2024-08-07_16h35.59.445,ASRT_percept,2023.2.3,151.47636438491008,2024-08-07 16h36.28.124898 +0800,
sequences/sub0103_percepttesting_sequence_00.csv,90,1,1,3,white,,,,,,,,,,,,,0,0,0,0,0,39,39,39,55.15809140000056,,,,,,,,,,,,,,,,,,,,,,,,,,,,,,,,,,,,,55.149449300000924,55.15809140000056,55.15809140000056,55.36317589999999,55.49302689999968,3,1,0.3298373999987234,None,55.493389999999636,55.49683240000013,55.55083080000077,55.5439824999994,55.54401409999991,55.55083080000077,56.24514959999942,,,,,,,,,,,sub0103,percept,6,0,2024-08-07_16h35.59.445,ASRT_percept,2023.2.3,151.47636438491008,2024-08-07 16h36.28.124898 +0800,
sequences/sub0103_percepttesting_sequence_00.csv,270,3,3,1,red,,,,,,,,,,,,,0,0,0,0,0,40,40,40,56.25139970000055,,,,,,,,,,,,,,,,,,,,,,,,,,,,,,,,,,,,,56.245683799999824,56.25139970000055,56.25139970000055,56.45386890000009,56.56051590000061,1,1,0.3079818999995041,None,56.56077449999975,56.56591610000032,56.6218542000006,56.614810099999886,56.61486650000006,56.6218542000006,57.315141799999765,57.32125719999931,,,,,,,,,,sub0103,percept,6,0,2024-08-07_16h35.59.445,ASRT_percept,2023.2.3,151.47636438491008,2024-08-07 16h36.28.124898 +0800,
sequences/sub0103_percepttesting_sequence_00.csv,0,0,0,4,white,,,,,,,,,,,,,0,0,0,0,0,41,41,41,57.32125719999931,,,,,,,,,,,,,,,,,,,,,,,,,,,,,,,,,,,,,57.315843099999256,57.32125719999931,57.32125719999931,57.52241099999992,57.6307839000001,4,1,0.3035027000005357,None,57.63220490000094,57.64345390000017,57.689101899999514,57.68327769999996,57.683294399999795,57.689101899999514,58.38465580000047,,,,,,,,,,,sub0103,percept,6,0,2024-08-07_16h35.59.445,ASRT_percept,2023.2.3,151.47636438491008,2024-08-07 16h36.28.124898 +0800,
sequences/sub0103_percepttesting_sequence_00.csv,90,1,1,3,red,,,,,,,,,,,,,0,0,0,0,0,42,42,42,58.394778300000326,,,,,,,,,,,,,,,,,,,,,,,,,,,,,,,,,,,,,58.38574619999963,58.394778300000326,58.394778300000326,58.599210099999254,58.73020759999963,3,1,0.3273038999996061,None,58.73110599999927,58.737431900000956,58.78670310000052,58.78112499999952,58.7811784000005,58.78670310000052,59.48136019999947,,,,,,,,,,,sub0103,percept,6,0,2024-08-07_16h35.59.445,ASRT_percept,2023.2.3,151.47636438491008,2024-08-07 16h36.28.124898 +0800,
sequences/sub0103_percepttesting_sequence_00.csv,270,3,3,1,white,,,,,,,,,,,,,0,0,0,0,0,43,43,43,59.48837810000077,,,,,,,,,,,,,,,,,,,,,,,,,,,,,,,,,,,,,59.48228899999958,59.48837810000077,59.48837810000077,59.689013900000646,59.91237309999997,1,1,0.4224144999989221,None,59.91263980000076,59.91858069999944,59.97440020000067,59.967810300000565,59.967874899999515,59.97440020000067,60.670179999999164,,,,,,,,,,,sub0103,percept,6,0,2024-08-07_16h35.59.445,ASRT_percept,2023.2.3,151.47636438491008,2024-08-07 16h36.28.124898 +0800,
sequences/sub0103_percepttesting_sequence_00.csv,0,0,0,4,red,,,,,,,,,,,,,0,0,0,0,0,44,44,44,60.676691099999516,,,,,,,,,,,,,,,,,,,,,,,,,,,,,,,,,,,,,60.670888299999206,60.676691099999516,60.676691099999516,60.87708399999974,60.978163399999175,4,1,0.2957645999995293,None,60.97909419999996,60.9847862000006,61.042528899999525,61.0319870000003,61.03203899999971,61.042528899999525,61.7377106999993,,,,,,,,,,,sub0103,percept,6,0,2024-08-07_16h35.59.445,ASRT_percept,2023.2.3,151.47636438491008,2024-08-07 16h36.28.124898 +0800,
sequences/sub0103_percepttesting_sequence_00.csv,180,2,2,2,white,,,,,,,,,,,,,0,0,0,0,0,45,45,45,61.74453619999986,,,,,,,,,,,,,,,,,,,,,,,,,,,,,,,,,,,,,61.73796279999988,61.74453619999986,61.74453619999986,61.94640910000089,62.07759900000019,2,1,0.3224817999998777,None,62.07841189999999,62.08429210000031,62.13381509999999,62.12774050000007,62.12778380000054,62.13381509999999,62.82871940000041,,,,,,,,,,,sub0103,percept,6,0,2024-08-07_16h35.59.445,ASRT_percept,2023.2.3,151.47636438491008,2024-08-07 16h36.28.124898 +0800,
sequences/sub0103_percepttesting_sequence_00.csv,180,2,2,2,red,,,,,,,,,,,,,0,0,0,0,0,46,46,46,62.83517820000088,,,,,,,,,,,,,,,,,,,,,,,,,,,,,,,,,,,,,62.829234000000724,62.83517820000088,62.83517820000088,63.03609999999935,63.16165419999925,2,1,0.32158950000120967,None,63.16198869999971,63.168049699999756,63.22437180000088,63.21818030000031,63.218227400000615,63.22437180000088,63.91855150000083,,,,,,,,,,,sub0103,percept,6,0,2024-08-07_16h35.59.445,ASRT_percept,2023.2.3,151.47636438491008,2024-08-07 16h36.28.124898 +0800,
sequences/sub0103_percepttesting_sequence_00.csv,90,1,1,3,white,,,,,,,,,,,,,0,0,0,0,0,47,47,47,63.92523799999981,,,,,,,,,,,,,,,,,,,,,,,,,,,,,,,,,,,,,63.918800100000226,63.92523799999981,63.92523799999981,64.12713649999932,64.28933580000012,3,1,0.36008310000033816,None,64.29035010000007,64.2974135000004,64.34874049999962,64.34297089999927,64.34301140000025,64.34874049999962,65.04400320000059,,,,,,,,,,,sub0103,percept,6,0,2024-08-07_16h35.59.445,ASRT_percept,2023.2.3,151.47636438491008,2024-08-07 16h36.28.124898 +0800,
sequences/sub0103_percepttesting_sequence_00.csv,180,2,2,2,red,,,,,,,,,,,,,0,0,0,0,0,48,48,48,65.04990689999977,,,,,,,,,,,,,,,,,,,,,,,,,,,,,,,,,,,,,65.0447619000006,65.04990689999977,65.04990689999977,65.25178720000076,65.35822740000003,2,1,0.3037989000004018,None,65.35902650000025,65.36431319999974,65.41828580000038,65.4129052999997,65.41294480000033,65.41828580000038,66.11344930000087,66.11964869999974,,,,,,,,,,sub0103,percept,6,0,2024-08-07_16h35.59.445,ASRT_percept,2023.2.3,151.47636438491008,2024-08-07 16h36.28.124898 +0800,
sequences/sub0103_percepttesting_sequence_00.csv,0,0,0,4,white,,,,,,,,,,,,,0,0,0,0,0,49,49,49,66.11964869999974,,,,,,,,,,,,,,,,,,,,,,,,,,,,,,,,,,,,,66.1140675000006,66.11964869999974,66.11964869999974,66.32184260000031,66.51059069999974,4,1,0.3863521999992372,None,66.51092699999936,66.51511390000087,66.5735167999992,66.56639990000076,66.56646650000039,66.5735167999992,67.27234529999987,,,,,,,,,,,sub0103,percept,6,0,2024-08-07_16h35.59.445,ASRT_percept,2023.2.3,151.47636438491008,2024-08-07 16h36.28.124898 +0800,
sequences/sub0103_percepttesting_sequence_00.csv,0,0,0,4,red,,,,,,,,,,,,,0,0,0,0,0,50,50,50,67.2792215999998,,,,,,,,,,,,,,,,,,,,,,,,,,,,,,,,,,,,,67.27260190000015,67.2792215999998,67.2792215999998,67.48214250000092,67.66202469999917,4,1,0.3785189000009268,None,67.66230370000085,67.66842130000077,67.72450659999959,67.71821789999922,67.71826759999931,67.72450659999959,68.41844680000031,,,,,,,,,,,sub0103,percept,6,0,2024-08-07_16h35.59.445,ASRT_percept,2023.2.3,151.47636438491008,2024-08-07 16h36.28.124898 +0800,
sequences/sub0103_percepttesting_sequence_00.csv,270,3,3,1,white,,,,,,,,,,,,,0,0,0,0,0,51,51,51,68.42521169999964,,,,,,,,,,,,,,,,,,,,,,,,,,,,,,,,,,,,,68.4189864,68.42521169999964,68.42521169999964,68.62604389999979,68.70476260000032,1,1,0.2731146999994962,None,68.7054250000001,68.71475669999927,68.76534759999959,68.75974730000053,68.75977969999985,68.76534759999959,69.46028680000018,,,,,,,,,,,sub0103,percept,6,0,2024-08-07_16h35.59.445,ASRT_percept,2023.2.3,151.47636438491008,2024-08-07 16h36.28.124898 +0800,
sequences/sub0103_percepttesting_sequence_00.csv,0,0,0,4,red,,,,,,,,,,,,,0,0,0,0,0,52,52,52,69.46701199999916,,,,,,,,,,,,,,,,,,,,,,,,,,,,,,,,,,,,,69.46088520000012,69.46701199999916,69.46701199999916,69.66815280000083,69.83581910000066,4,1,0.3636673000000883,None,69.83608409999943,69.84138200000052,69.89799800000037,69.8922433000007,69.89231239999935,69.89799800000037,70.59276479999971,,,,,,,,,,,sub0103,percept,6,0,2024-08-07_16h35.59.445,ASRT_percept,2023.2.3,151.47636438491008,2024-08-07 16h36.28.124898 +0800,
sequences/sub0103_percepttesting_sequence_00.csv,180,2,2,2,white,,,,,,,,,,,,,0,0,0,0,0,53,53,53,70.6009193000009,,,,,,,,,,,,,,,,,,,,,,,,,,,,,,,,,,,,,70.59359779999977,70.6009193000009,70.6009193000009,70.80043250000017,70.91982040000039,2,1,0.3172844000000623,None,70.9201008,70.92501889999949,70.98105310000028,70.9750411999994,70.97508050000033,70.98105310000028,71.6758375999998,,,,,,,,,,,sub0103,percept,6,0,2024-08-07_16h35.59.445,ASRT_percept,2023.2.3,151.47636438491008,2024-08-07 16h36.28.124898 +0800,
sequences/sub0103_percepttesting_sequence_00.csv,0,0,0,4,red,,,,,,,,,,,,,0,0,0,0,0,54,54,54,71.68378040000061,,,,,,,,,,,,,,,,,,,,,,,,,,,,,,,,,,,,,71.67682960000093,71.68378040000061,71.68378040000061,71.88357299999916,72.03305829999954,4,1,0.34138069999971776,None,72.03358889999981,72.04055049999988,72.09156559999974,72.08625319999919,72.08629490000021,72.09156559999974,72.78705880000052,,,,,,,,,,,sub0103,percept,6,0,2024-08-07_16h35.59.445,ASRT_percept,2023.2.3,151.47636438491008,2024-08-07 16h36.28.124898 +0800,
sequences/sub0103_percepttesting_sequence_00.csv,90,1,1,3,white,,,,,,,,,,,,,0,0,0,0,0,55,55,55,72.79640110000037,,,,,,,,,,,,,,,,,,,,,,,,,,,,,,,,,,,,,72.78789890000007,72.79640110000037,72.79640110000037,73.00160800000049,73.15011589999995,3,1,0.3479977000006329,None,73.1508343000005,73.15692630000012,73.20991379999941,73.2041833000003,73.20423049999954,73.20991379999941,73.90462929999921,,,,,,,,,,,sub0103,percept,6,0,2024-08-07_16h35.59.445,ASRT_percept,2023.2.3,151.47636438491008,2024-08-07 16h36.28.124898 +0800,
sequences/sub0103_percepttesting_sequence_00.csv,180,2,2,2,red,,,,,,,,,,,,,0,0,0,0,0,56,56,56,73.91093530000035,,,,,,,,,,,,,,,,,,,,,,,,,,,,,,,,,,,,,73.90539800000079,73.91093530000035,73.91093530000035,74.11222640000051,74.28375100000085,2,1,0.369177700000364,None,74.2846286999993,74.2931281000001,74.34186360000058,74.3359075999997,74.3359548999997,74.34186360000058,75.0368125999994,,,,,,,,,,,sub0103,percept,6,0,2024-08-07_16h35.59.445,ASRT_percept,2023.2.3,151.47636438491008,2024-08-07 16h36.28.124898 +0800,
sequences/sub0103_percepttesting_sequence_00.csv,0,0,0,4,white,,,,,,,,,,,,,0,0,0,0,0,57,57,57,75.04322030000003,,,,,,,,,,,,,,,,,,,,,,,,,,,,,,,,,,,,,75.03712059999998,75.04322030000003,75.04322030000003,75.2444372000009,75.3983647999994,4,1,0.35328149999986636,None,75.39862720000019,75.40364690000024,75.4594935999994,75.45289600000069,75.45291670000006,75.4594935999994,76.15458559999934,,,,,,,,,,,sub0103,percept,6,0,2024-08-07_16h35.59.445,ASRT_percept,2023.2.3,151.47636438491008,2024-08-07 16h36.28.124898 +0800,
sequences/sub0103_percepttesting_sequence_00.csv,180,2,2,2,red,,,,,,,,,,,,,0,0,0,0,0,58,58,58,76.16120500000034,,,,,,,,,,,,,,,,,,,,,,,,,,,,,,,,,,,,,76.15526409999984,76.16120500000034,76.16120500000034,76.36290609999924,76.5147520999999,4,0,0.34810140000081446,None,76.51535990000048,76.52118220000011,76.57201259999965,76.56382590000067,76.5638424000008,76.57201259999965,77.26597489999949,,,,,,,,,,,sub0103,percept,6,0,2024-08-07_16h35.59.445,ASRT_percept,2023.2.3,151.47636438491008,2024-08-07 16h36.28.124898 +0800,
sequences/sub0103_percepttesting_sequence_00.csv,270,3,3,1,white,,,,,,,,,,,,,0,0,0,0,0,59,59,59,77.27201840000089,,,,,,,,,,,,,,,,,,,,,,,,,,,,,,,,,,,,,77.26687110000057,77.27201840000089,77.27201840000089,77.47402870000042,77.64257890000044,1,1,0.3667302000012569,None,77.64328209999985,77.65231529999983,77.70312150000063,77.69783470000039,77.69789180000043,77.70312150000063,78.39820680000048,78.40386620000027,,,,,,,,,,sub0103,percept,6,0,2024-08-07_16h35.59.445,ASRT_percept,2023.2.3,151.47636438491008,2024-08-07 16h36.28.124898 +0800,
sequences/sub0103_percepttesting_sequence_00.csv,0,0,0,4,red,,,,,,,,,,,,,0,0,0,0,0,60,60,60,78.40386620000027,,,,,,,,,,,,,,,,,,,,,,,,,,,,,,,,,,,,,78.39886420000039,78.40386620000027,78.40386620000027,78.60578039999928,78.72601960000065,4,1,0.3155640000004496,None,78.72680369999944,78.73174830000062,78.79439900000034,78.78016879999996,78.78021540000009,78.79439900000034,79.48701140000048,,,,,,,,,,,sub0103,percept,6,0,2024-08-07_16h35.59.445,ASRT_percept,2023.2.3,151.47636438491008,2024-08-07 16h36.28.124898 +0800,
sequences/sub0103_percepttesting_sequence_00.csv,180,2,2,2,white,,,,,,,,,,,,,0,0,0,0,0,61,61,61,79.49389399999927,,,,,,,,,,,,,,,,,,,,,,,,,,,,,,,,,,,,,79.48733750000065,79.49389399999927,79.49389399999927,79.69588900000053,79.82485120000092,2,1,0.3247988000002806,None,79.8260248000006,79.83268209999915,79.88328510000065,79.87732420000066,79.87738879999961,79.88328510000065,80.57775749999928,,,,,,,,,,,sub0103,percept,6,0,2024-08-07_16h35.59.445,ASRT_percept,2023.2.3,151.47636438491008,2024-08-07 16h36.28.124898 +0800,
sequences/sub0103_percepttesting_sequence_00.csv,90,1,1,3,red,,,,,,,,,,,,,0,0,0,0,0,62,62,62,80.58475180000096,,,,,,,,,,,,,,,,,,,,,,,,,,,,,,,,,,,,,80.5780104000005,80.58475180000096,80.58475180000096,80.78639850000036,80.94892509999954,3,1,0.3594178000003012,None,80.94966279999971,80.95563150000089,81.00819989999945,81.00175730000046,81.00177609999992,81.00819989999945,81.70286889999988,,,,,,,,,,,sub0103,percept,6,0,2024-08-07_16h35.59.445,ASRT_percept,2023.2.3,151.47636438491008,2024-08-07 16h36.28.124898 +0800,
sequences/sub0103_percepttesting_sequence_00.csv,90,1,1,3,white,,,,,,,,,,,,,0,0,0,0,0,63,63,63,81.70950009999979,,,,,,,,,,,,,,,,,,,,,,,,,,,,,,,,,,,,,81.70362869999917,81.70950009999979,81.70950009999979,81.9112483000008,82.06963890000043,3,1,0.34927260000040405,None,82.07060400000046,82.07570590000068,82.13489610000033,82.12429230000089,82.12438939999993,82.13489610000033,82.82895540000027,,,,,,,,,,,sub0103,percept,6,0,2024-08-07_16h35.59.445,ASRT_percept,2023.2.3,151.47636438491008,2024-08-07 16h36.28.124898 +0800,
sequences/sub0103_percepttesting_sequence_00.csv,0,0,0,4,red,,,,,,,,,,,,,0,0,0,0,0,64,64,64,82.83561379999992,,,,,,,,,,,,,,,,,,,,,,,,,,,,,,,,,,,,,82.8296504000009,82.83561379999992,82.83561379999992,83.0366783999998,83.10215410000092,2,0,0.2617480000008072,None,83.10314389999985,83.11063859999922,83.17025169999943,83.16388480000023,83.16395369999918,83.17025169999943,83.86411729999963,83.87121809999917,,,,,,,,,,sub0103,percept,6,0,2024-08-07_16h35.59.445,ASRT_percept,2023.2.3,151.47636438491008,2024-08-07 16h36.28.124898 +0800,
sequences/sub0103_percepttesting_sequence_00.csv,0,0,0,4,white,,,,,,,,,,,,,0,0,0,0,0,65,65,65,83.87121809999917,,,,,,,,,,,,,,,,,,,,,,,,,,,,,,,,,,,,,83.8650447,83.87121809999917,83.87121809999917,84.07128809999995,84.20926780000082,4,1,0.3335667999999714,None,84.20997420000094,84.21638669999993,84.26523169999928,84.26019149999956,84.26024089999919,84.26523169999928,84.95979369999986,84.96637740000006,,,,,,,,,,sub0103,percept,6,0,2024-08-07_16h35.59.445,ASRT_percept,2023.2.3,151.47636438491008,2024-08-07 16h36.28.124898 +0800,
sequences/sub0103_percepttesting_sequence_00.csv,180,2,2,2,red,,,,,,,,,,,,,0,0,0,0,0,66,66,66,84.96637740000006,,,,,,,,,,,,,,,,,,,,,,,,,,,,,,,,,,,,,84.96011060000092,84.96637740000006,84.96637740000006,85.16829040000084,85.36081259999992,2,1,0.38950260000092385,None,85.36180109999987,85.36941649999972,85.41854799999965,85.41279170000053,85.41285140000036,85.41854799999965,86.11414909999985,86.12381119999918,,,,,,,,,,sub0103,percept,6,0,2024-08-07_16h35.59.445,ASRT_percept,2023.2.3,151.47636438491008,2024-08-07 16h36.28.124898 +0800,
sequences/sub0103_percepttesting_sequence_00.csv,270,3,3,1,white,,,,,,,,,,,,,0,0,0,0,0,67,67,67,86.12381119999918,,,,,,,,,,,,,,,,,,,,,,,,,,,,,,,,,,,,,86.1152703000007,86.12381119999918,86.12381119999918,86.32706569999937,86.46503529999973,1,1,0.3358822999998665,None,86.46571009999934,86.47315399999934,86.52248920000056,86.51662000000033,86.51666680000017,86.52248920000056,87.2169159999994,,,,,,,,,,,sub0103,percept,6,0,2024-08-07_16h35.59.445,ASRT_percept,2023.2.3,151.47636438491008,2024-08-07 16h36.28.124898 +0800,
sequences/sub0103_percepttesting_sequence_00.csv,90,1,1,3,red,,,,,,,,,,,,,0,0,0,0,0,68,68,68,87.22317219999968,,,,,,,,,,,,,,,,,,,,,,,,,,,,,,,,,,,,,87.21748049999951,87.22317219999968,87.22317219999968,87.42479699999967,87.6067624999996,3,1,0.3810117999983049,None,87.60709909999969,87.61243339999965,87.6674423000004,87.66143999999986,87.66145739999956,87.6674423000004,88.36365669999941,,,,,,,,,,,sub0103,percept,6,0,2024-08-07_16h35.59.445,ASRT_percept,2023.2.3,151.47636438491008,2024-08-07 16h36.28.124898 +0800,
sequences/sub0103_percepttesting_sequence_00.csv,180,2,2,2,white,,,,,,,,,,,,,0,0,0,0,0,69,69,69,88.37225170000056,,,,,,,,,,,,,,,,,,,,,,,,,,,,,,,,,,,,,88.36495970000033,88.37225170000056,88.37225170000056,88.5776578999994,88.68395509999937,2,1,0.3047688000006019,None,88.68511360000048,88.69109690000005,88.7444028000009,88.73865250000017,88.73870669999997,88.7444028000009,89.43965179999941,89.44674889999987,,,,,,,,,,sub0103,percept,6,0,2024-08-07_16h35.59.445,ASRT_percept,2023.2.3,151.47636438491008,2024-08-07 16h36.28.124898 +0800,
sequences/sub0103_percepttesting_sequence_00.csv,270,3,3,1,red,,,,,,,,,,,,,0,0,0,0,0,70,70,70,89.44674889999987,,,,,,,,,,,,,,,,,,,,,,,,,,,,,,,,,,,,,89.44041130000005,89.44674889999987,89.44674889999987,89.64709389999916,89.78667649999988,1,1,0.3356980000007752,None,89.78693869999915,89.79280010000002,89.84789769999952,89.84271110000009,89.84272760000022,89.84789769999952,90.54283430000032,90.54971490000025,,,,,,,,,,sub0103,percept,6,0,2024-08-07_16h35.59.445,ASRT_percept,2023.2.3,151.47636438491008,2024-08-07 16h36.28.124898 +0800,
sequences/sub0103_percepttesting_sequence_00.csv,90,1,1,3,white,,,,,,,,,,,,,0,0,0,0,0,71,71,71,90.54971490000025,,,,,,,,,,,,,,,,,,,,,,,,,,,,,,,,,,,,,90.54311310000048,90.54971490000025,90.54971490000025,90.75103459999991,90.92743979999977,3,1,0.37047329999950307,None,90.92837710000094,90.93481229999998,90.9872362999995,90.98182819999965,90.9818809999997,90.9872362999995,91.68186459999924,91.68891670000085,,,,,,,,,,sub0103,percept,6,0,2024-08-07_16h35.59.445,ASRT_percept,2023.2.3,151.47636438491008,2024-08-07 16h36.28.124898 +0800,
sequences/sub0103_percepttesting_sequence_00.csv,90,1,1,3,red,,,,,,,,,,,,,0,0,0,0,0,72,72,72,91.68891670000085,,,,,,,,,,,,,,,,,,,,,,,,,,,,,,,,,,,,,91.68212789999961,91.68891670000085,91.68891670000085,91.89045900000019,92.06974300000002,3,1,0.37668680000024324,None,92.07007370000065,92.07229949999964,92.12685579999925,92.12183899999945,92.12189890000082,92.12685579999925,92.82189450000078,92.82811910000055,,,,,,,,,,sub0103,percept,6,0,2024-08-07_16h35.59.445,ASRT_percept,2023.2.3,151.47636438491008,2024-08-07 16h36.28.124898 +0800,
sequences/sub0103_percepttesting_sequence_00.csv,0,0,0,4,white,,,,,,,,,,,,,0,0,0,0,0,73,73,73,92.82811910000055,,,,,,,,,,,,,,,,,,,,,,,,,,,,,,,,,,,,,92.8226852000007,92.82811910000055,92.82811910000055,93.02919420000035,93.19137559999945,4,1,0.3592596999988018,None,93.19204329999957,93.1978282,93.25114539999959,93.24516260000019,93.24520440000015,93.25114539999959,93.94545149999976,93.95302430000083,,,,,,,,,,sub0103,percept,6,0,2024-08-07_16h35.59.445,ASRT_percept,2023.2.3,151.47636438491008,2024-08-07 16h36.28.124898 +0800,
sequences/sub0103_percepttesting_sequence_00.csv,90,1,1,3,red,,,,,,,,,,,,,0,0,0,0,0,74,74,74,93.95302430000083,,,,,,,,,,,,,,,,,,,,,,,,,,,,,,,,,,,,,93.94571170000017,93.95302430000083,93.95302430000083,94.15387489999921,94.33845309999924,3,1,0.3806038000002445,None,94.33949919999941,94.34711609999977,94.39727139999923,94.3906236999992,94.39065370000026,94.39727139999923,95.0916871999998,,,,,,,,,,,sub0103,percept,6,0,2024-08-07_16h35.59.445,ASRT_percept,2023.2.3,151.47636438491008,2024-08-07 16h36.28.124898 +0800,
sequences/sub0103_percepttesting_sequence_00.csv,270,3,3,1,white,,,,,,,,,,,,,0,0,0,0,0,75,75,75,95.09811430000082,,,,,,,,,,,,,,,,,,,,,,,,,,,,,,,,,,,,,95.09234359999937,95.09811430000082,95.09811430000082,95.29990910000015,95.45923539999967,1,1,0.35639609999998356,None,95.46051699999953,95.47119369999928,95.51481160000003,95.5090626000001,95.50910509999994,95.51481160000003,96.20964559999993,,,,,,,,,,,sub0103,percept,6,0,2024-08-07_16h35.59.445,ASRT_percept,2023.2.3,151.47636438491008,2024-08-07 16h36.28.124898 +0800,
sequences/sub0103_percepttesting_sequence_00.csv,0,0,0,4,red,,,,,,,,,,,,,0,0,0,0,0,76,76,76,96.2180258999997,,,,,,,,,,,,,,,,,,,,,,,,,,,,,,,,,,,,,96.21055689999957,96.2180258999997,96.2180258999997,96.41797749999932,96.63313249999919,4,1,0.4127658999987034,None,96.63416770000003,96.6403590000009,96.6955366000002,96.69009860000006,96.69015229999968,96.6955366000002,97.39111030000095,,,,,,,,,,,sub0103,percept,6,0,2024-08-07_16h35.59.445,ASRT_percept,2023.2.3,151.47636438491008,2024-08-07 16h36.28.124898 +0800,
sequences/sub0103_percepttesting_sequence_00.csv,180,2,2,2,white,,,,,,,,,,,,,0,0,0,0,0,77,77,77,97.40073789999951,,,,,,,,,,,,,,,,,,,,,,,,,,,,,,,,,,,,,97.3923407000002,97.40073789999951,97.40073789999951,97.60519030000069,97.80397029999949,2,1,0.3957805999998527,None,97.80486100000053,97.81099349999931,97.86202950000006,97.85633729999972,97.8563809999996,97.86202950000006,98.55645919999915,98.5629669000009,,,,,,,,,,sub0103,percept,6,0,2024-08-07_16h35.59.445,ASRT_percept,2023.2.3,151.47636438491008,2024-08-07 16h36.28.124898 +0800,
sequences/sub0103_percepttesting_sequence_00.csv,270,3,3,1,red,,,,,,,,,,,,,0,0,0,0,0,78,78,78,98.5629669000009,,,,,,,,,,,,,,,,,,,,,,,,,,,,,,,,,,,,,98.55674419999923,98.5629669000009,98.5629669000009,98.76505670000006,98.92003900000054,1,1,0.3490244000004168,None,98.92083850000017,98.92606630000046,98.98035700000037,98.97453459999997,98.97457729999951,98.98035700000037,99.67551070000081,,,,,,,,,,,sub0103,percept,6,0,2024-08-07_16h35.59.445,ASRT_percept,2023.2.3,151.47636438491008,2024-08-07 16h36.28.124898 +0800,
sequences/sub0103_percepttesting_sequence_00.csv,90,1,1,3,white,,,,,,,,,,,,,0,0,0,0,0,79,79,79,99.68560649999927,,,,,,,,,,,,,,,,,,,,,,,,,,,,,,,,,,,,,99.6767689999997,99.68560649999927,99.68560649999927,99.88962060000085,100.04307449999942,3,1,0.354846300000645,None,100.04335170000013,100.04946010000094,100.10547290000068,100.09973949999949,100.09975809999924,100.10547290000068,100.7987391000006,100.80463539999982,,,,,,,,,,sub0103,percept,6,0,2024-08-07_16h35.59.445,ASRT_percept,2023.2.3,151.47636438491008,2024-08-07 16h36.28.124898 +0800,
sequences/sub0103_percepttesting_sequence_00.csv,270,3,3,1,red,,,,,,,,,,,,,0,0,0,0,0,80,80,80,100.80463539999982,,,,,,,,,,,,,,,,,,,,,,,,,,,,,,,,,,,,,100.79925980000007,100.80463539999982,100.80463539999982,101.00816250000025,101.18501250000008,1,1,0.3750099999997474,None,101.18576050000047,101.19057989999965,101.24411259999943,101.23857060000046,101.23862290000034,101.24411259999943,101.9390313999993,101.94503649999933,,,,,,,,,,sub0103,percept,6,0,2024-08-07_16h35.59.445,ASRT_percept,2023.2.3,151.47636438491008,2024-08-07 16h36.28.124898 +0800,
sequences/sub0103_percepttesting_sequence_00.csv,0,0,0,4,white,,,,,,,,,,,,,0,0,0,0,0,81,81,81,101.94503649999933,,,,,,,,,,,,,,,,,,,,,,,,,,,,,,,,,,,,,101.93944969999939,101.94503649999933,101.94503649999933,102.14705069999945,102.29836319999959,4,1,0.34437830000024405,None,102.29940859999988,102.30923579999944,102.35510190000059,102.3488254999993,102.34886159999951,102.35510190000059,103.04982120000022,,,,,,,,,,,sub0103,percept,6,0,2024-08-07_16h35.59.445,ASRT_percept,2023.2.3,151.47636438491008,2024-08-07 16h36.28.124898 +0800,
sequences/sub0103_percepttesting_sequence_00.csv,90,1,1,3,red,,,,,,,,,,,,,0,0,0,0,0,82,82,82,103.05797779999921,,,,,,,,,,,,,,,,,,,,,,,,,,,,,,,,,,,,,103.05056709999917,103.05797779999921,103.05797779999921,103.2579227999995,103.4284160999996,3,1,0.3647203000000445,None,103.42922940000062,103.43499660000089,103.48706710000079,103.48145590000058,103.4814951999997,103.48706710000079,104.18207690000054,,,,,,,,,,,sub0103,percept,6,0,2024-08-07_16h35.59.445,ASRT_percept,2023.2.3,151.47636438491008,2024-08-07 16h36.28.124898 +0800,
sequences/sub0103_percepttesting_sequence_00.csv,270,3,3,1,white,,,,,,,,,,,,,0,0,0,0,0,83,83,83,104.18943039999976,,,,,,,,,,,,,,,,,,,,,,,,,,,,,,,,,,,,,104.18292629999996,104.18943039999976,104.18943039999976,104.38999160000094,104.5612715999996,1,1,0.3632896000017354,None,104.5619456000004,104.56734040000083,104.61923419999948,104.6137319999998,104.61377899999934,104.61923419999948,105.3143211000006,105.32134279999991,,,,,,,,,,sub0103,percept,6,0,2024-08-07_16h35.59.445,ASRT_percept,2023.2.3,151.47636438491008,2024-08-07 16h36.28.124898 +0800,
sequences/sub0103_percepttesting_sequence_00.csv,180,2,2,2,red,,,,,,,,,,,,,0,0,0,0,0,84,84,84,105.32134279999991,,,,,,,,,,,,,,,,,,,,,,,,,,,,,,,,,,,,,105.31488850000096,105.32134279999991,105.32134279999991,105.5227943000009,105.6919756999996,2,1,0.36452860000099463,None,105.69281389999924,105.70032270000047,105.75073530000009,105.7453845,105.74543819999963,105.75073530000009,106.44575310000073,,,,,,,,,,,sub0103,percept,6,0,2024-08-07_16h35.59.445,ASRT_percept,2023.2.3,151.47636438491008,2024-08-07 16h36.28.124898 +0800,
sequences/sub0103_percepttesting_sequence_00.csv,,,,,,,,,,,,,,,,,,0,0,0,0,,,,,,,,,,,,,,,,,,,,,,,,,,,,,,,,,,,,,,,,,,,,,,,,,,,,,,,,,,,106.44607279999946,106.47098639999967,106.47098639999967,108.47355369999968,space,1.9958490000008169,None,,,sub0103,percept,6,0,2024-08-07_16h35.59.445,ASRT_percept,2023.2.3,151.47636438491008,2024-08-07 16h36.28.124898 +0800,
sequences/sub0103_percepttesting_sequence_01.csv,0,0,0,4,red,,,,,,,,,,,,,0,1,1,1,0,0,0,0,109.50282040000093,,,,,,,,,,,,,,,,,,,,,,,,,,,,,,,,,,108.47399779999978,108.48012129999915,109.47357050000028,109.49979610000082,109.50282040000093,109.50282040000093,109.70211969999946,109.8735527000008,4,1,0.3653027000000293,None,109.8749573999994,109.88235220000024,109.93125180000061,109.92529130000003,109.92533980000007,109.93125180000061,110.62632590000067,,,,,,,,,109.50282040000093,,sub0103,percept,6,0,2024-08-07_16h35.59.445,ASRT_percept,2023.2.3,151.47636438491008,2024-08-07 16h36.28.124898 +0800,
sequences/sub0103_percepttesting_sequence_01.csv,90,1,1,3,red,,,,,,,,,,,,,0,1,1,1,0,1,1,1,110.63482690000092,,,,,,,,,,,,,,,,,,,,,,,,,,,,,,,,,,,,,110.62712190000093,110.63482690000092,110.63482690000092,110.84049469999991,111.03394990000015,3,1,0.3925875000004453,None,111.03504229999999,111.04179610000028,111.0917128000001,111.08421799999996,111.0842358000009,111.0917128000001,111.78527949999989,,,,,,,,,,,sub0103,percept,6,0,2024-08-07_16h35.59.445,ASRT_percept,2023.2.3,151.47636438491008,2024-08-07 16h36.28.124898 +0800,
sequences/sub0103_percepttesting_sequence_01.csv,180,2,2,2,red,,,,,,,,,,,,,0,1,1,1,0,2,2,2,111.79223860000093,,,,,,,,,,,,,,,,,,,,,,,,,,,,,,,,,,,,,111.78605020000032,111.79223860000093,111.79223860000093,112.00148040000022,112.16764580000017,2,1,0.37145389999932377,None,112.16801379999924,112.17373140000018,112.22924120000062,112.22264770000038,112.2226623000006,112.22924120000062,112.9253847,,,,,,,,,,,sub0103,percept,6,0,2024-08-07_16h35.59.445,ASRT_percept,2023.2.3,151.47636438491008,2024-08-07 16h36.28.124898 +0800,
sequences/sub0103_percepttesting_sequence_01.csv,270,3,3,1,red,,,,,,,,,,,,,0,1,1,1,0,3,3,3,112.93547650000073,,,,,,,,,,,,,,,,,,,,,,,,,,,,,,,,,,,,,112.9262490000001,112.93547650000073,112.93547650000073,113.13963180000064,113.25958779999928,1,1,0.3212975999995251,None,113.26022440000088,113.26696529999936,113.32059289999961,113.31407290000061,113.31409340000027,113.32059289999961,114.01572610000039,,,,,,,,,,,sub0103,percept,6,0,2024-08-07_16h35.59.445,ASRT_percept,2023.2.3,151.47636438491008,2024-08-07 16h36.28.124898 +0800,
sequences/sub0103_percepttesting_sequence_01.csv,180,2,2,2,red,,,,,,,,,,,,,0,1,1,1,0,4,4,4,114.02516760000071,,,,,,,,,,,,,,,,,,,,,,,,,,,,,,,,,,,,,114.01710950000052,114.02516760000071,114.02516760000071,114.23002919999999,114.33701029999975,2,1,0.30473329999949783,None,114.33785220000027,114.3466042,114.39672120000068,114.39097989999937,114.39105989999916,114.39672120000068,115.0923043999992,,,,,,,,,,,sub0103,percept,6,0,2024-08-07_16h35.59.445,ASRT_percept,2023.2.3,151.47636438491008,2024-08-07 16h36.28.124898 +0800,
sequences/sub0103_percepttesting_sequence_01.csv,180,2,2,2,white,,,,,,,,,,,,,0,1,1,1,0,5,5,5,115.10436850000042,,,,,,,,,,,,,,,,,,,,,,,,,,,,,,,,,,,,,115.0936958000002,115.10436850000042,115.10436850000042,115.30636330000016,115.42714890000025,2,1,0.3190121999996336,None,115.42776090000007,115.43369929999972,115.48893239999961,115.48239900000044,115.48246669999935,115.48893239999961,116.18275890000041,116.19256529999984,,,,,,,,,,sub0103,percept,6,0,2024-08-07_16h35.59.445,ASRT_percept,2023.2.3,151.47636438491008,2024-08-07 16h36.28.124898 +0800,
sequences/sub0103_percepttesting_sequence_01.csv,90,1,1,3,red,,,,,,,,,,,,,0,1,1,1,0,6,6,6,116.19256529999984,,,,,,,,,,,,,,,,,,,,,,,,,,,,,,,,,,,,,116.18358790000093,116.19256529999984,116.19256529999984,116.3969061000007,116.52429819999998,3,1,0.3268929999994725,None,116.52516099999957,116.5310513000004,116.58314170000085,116.57878990000063,116.57884279999962,116.58314170000085,117.27814760000001,117.28552069999932,,,,,,,,,,sub0103,percept,6,0,2024-08-07_16h35.59.445,ASRT_percept,2023.2.3,151.47636438491008,2024-08-07 16h36.28.124898 +0800,
sequences/sub0103_percepttesting_sequence_01.csv,90,1,1,3,white,,,,,,,,,,,,,0,1,1,1,0,7,7,7,117.28552069999932,,,,,,,,,,,,,,,,,,,,,,,,,,,,,,,,,,,,,117.27839769999991,117.28552069999932,117.28552069999932,117.48771809999926,117.66755340000054,3,1,0.37988319999931264,None,117.66787069999918,117.67674389999956,117.72954489999938,117.72448889999941,117.72454509999989,117.72954489999938,118.42519449999963,118.43095279999943,,,,,,,,,,sub0103,percept,6,0,2024-08-07_16h35.59.445,ASRT_percept,2023.2.3,151.47636438491008,2024-08-07 16h36.28.124898 +0800,
sequences/sub0103_percepttesting_sequence_01.csv,0,0,0,4,red,,,,,,,,,,,,,0,1,1,1,0,8,8,8,118.43095279999943,,,,,,,,,,,,,,,,,,,,,,,,,,,,,,,,,,,,,118.42578350000076,118.43095279999943,118.43095279999943,118.63149859999976,118.86425240000062,4,1,0.42919890000121086,None,118.86504699999932,118.87033239999982,118.92399269999987,118.91810540000006,118.91816309999922,118.92399269999987,119.61910920000082,,,,,,,,,,,sub0103,percept,6,0,2024-08-07_16h35.59.445,ASRT_percept,2023.2.3,151.47636438491008,2024-08-07 16h36.28.124898 +0800,
sequences/sub0103_percepttesting_sequence_01.csv,0,0,0,4,white,,,,,,,,,,,,,0,1,1,1,0,9,9,9,119.62746180000067,,,,,,,,,,,,,,,,,,,,,,,,,,,,,,,,,,,,,119.61977119999938,119.62746180000067,119.62746180000067,119.8266521000005,119.95336599999973,4,1,0.32135680000101274,None,119.95366289999947,119.95829360000062,120.02376550000008,120.01603579999937,120.01609699999972,120.02376550000008,120.71639689999938,,,,,,,,,,,sub0103,percept,6,0,2024-08-07_16h35.59.445,ASRT_percept,2023.2.3,151.47636438491008,2024-08-07 16h36.28.124898 +0800,
sequences/sub0103_percepttesting_sequence_01.csv,180,2,2,2,red,,,,,,,,,,,,,0,1,1,1,0,10,10,10,120.72407480000038,,,,,,,,,,,,,,,,,,,,,,,,,,,,,,,,,,,,,120.71734429999924,120.72407480000038,120.72407480000038,120.92447100000027,121.06369129999985,2,1,0.33592510000016773,None,121.06428659999983,121.07108289999996,121.12534600000072,121.11967279999953,121.1196901000003,121.12534600000072,121.81990469999982,,,,,,,,,,,sub0103,percept,6,0,2024-08-07_16h35.59.445,ASRT_percept,2023.2.3,151.47636438491008,2024-08-07 16h36.28.124898 +0800,
sequences/sub0103_percepttesting_sequence_01.csv,270,3,3,1,white,,,,,,,,,,,,,0,1,1,1,0,11,11,11,121.82703799999945,,,,,,,,,,,,,,,,,,,,,,,,,,,,,,,,,,,,,121.82018020000032,121.82703799999945,121.82703799999945,122.02857439999934,122.13566069999979,1,1,0.3033945999995922,None,122.1364493000001,122.14328390000082,122.19654830000036,122.19009820000065,122.19016069999998,122.19654830000036,122.89018229999965,122.89685429999918,,,,,,,,,,sub0103,percept,6,0,2024-08-07_16h35.59.445,ASRT_percept,2023.2.3,151.47636438491008,2024-08-07 16h36.28.124898 +0800,
sequences/sub0103_percepttesting_sequence_01.csv,270,3,3,1,red,,,,,,,,,,,,,0,1,1,1,0,12,12,12,122.89685429999918,,,,,,,,,,,,,,,,,,,,,,,,,,,,,,,,,,,,,122.89093909999974,122.89685429999918,122.89685429999918,123.09751599999981,123.21783689999938,1,1,0.31584640000073705,None,123.21836000000076,123.2233398999997,123.27801089999957,123.2724333999995,123.2724904000006,123.27801089999957,123.97302590000072,,,,,,,,,,,sub0103,percept,6,0,2024-08-07_16h35.59.445,ASRT_percept,2023.2.3,151.47636438491008,2024-08-07 16h36.28.124898 +0800,
sequences/sub0103_percepttesting_sequence_01.csv,180,2,2,2,white,,,,,,,,,,,,,0,1,1,1,0,13,13,13,123.97946969999975,,,,,,,,,,,,,,,,,,,,,,,,,,,,,,,,,,,,,123.97372449999966,123.97946969999975,123.97946969999975,124.2021122999995,124.32190640000044,2,1,0.33610919999955513,None,124.32256210000014,124.32788769999934,124.38218620000043,124.37669549999919,124.37674010000046,124.38218620000043,125.07797489999939,,,,,,,,,,,sub0103,percept,6,0,2024-08-07_16h35.59.445,ASRT_percept,2023.2.3,151.47636438491008,2024-08-07 16h36.28.124898 +0800,
sequences/sub0103_percepttesting_sequence_01.csv,0,0,0,4,red,,,,,,,,,,,,,0,1,1,1,0,14,14,14,125.08386480000081,,,,,,,,,,,,,,,,,,,,,,,,,,,,,,,,,,,,,125.07857180000065,125.08386480000081,125.08386480000081,125.28508499999953,125.43451099999947,4,1,0.34421800000018266,None,125.43534309999995,125.44187050000073,125.49336349999976,125.48807549999947,125.48812929999985,125.49336349999976,126.1890043000003,,,,,,,,,,,sub0103,percept,6,0,2024-08-07_16h35.59.445,ASRT_percept,2023.2.3,151.47636438491008,2024-08-07 16h36.28.124898 +0800,
sequences/sub0103_percepttesting_sequence_01.csv,90,1,1,3,white,,,,,,,,,,,,,0,1,1,1,0,15,15,15,126.19477870000082,,,,,,,,,,,,,,,,,,,,,,,,,,,,,,,,,,,,,126.18969789999937,126.19477870000082,126.19477870000082,126.39721859999918,126.53280880000057,3,1,0.3289539999987028,None,126.53410260000055,126.53963400000066,126.59106480000082,126.58424840000043,126.58427180000035,126.59106480000082,127.28505869999935,,,,,,,,,,,sub0103,percept,6,0,2024-08-07_16h35.59.445,ASRT_percept,2023.2.3,151.47636438491008,2024-08-07 16h36.28.124898 +0800,
sequences/sub0103_percepttesting_sequence_01.csv,0,0,0,4,red,,,,,,,,,,,,,0,1,1,1,0,16,16,16,127.29196849999971,,,,,,,,,,,,,,,,,,,,,,,,,,,,,,,,,,,,,127.28577469999982,127.29196849999971,127.29196849999971,127.49392230000012,127.65842209999937,4,1,0.36003580000033253,None,127.65885800000069,127.6617370999993,127.71587940000063,127.70968849999917,127.70973210000011,127.71587940000063,128.41016879999916,,,,,,,,,,,sub0103,percept,6,0,2024-08-07_16h35.59.445,ASRT_percept,2023.2.3,151.47636438491008,2024-08-07 16h36.28.124898 +0800,
sequences/sub0103_percepttesting_sequence_01.csv,0,0,0,4,white,,,,,,,,,,,,,0,1,1,1,0,17,17,17,128.4176308999995,,,,,,,,,,,,,,,,,,,,,,,,,,,,,,,,,,,,,128.4106439999996,128.4176308999995,128.4176308999995,128.61860250000063,128.6834385000002,4,1,0.25920589999986987,None,128.6842140000008,128.69299429999955,128.7434405999993,128.7376079000005,128.7376547999993,128.7434405999993,129.4380923000008,,,,,,,,,,,sub0103,percept,6,0,2024-08-07_16h35.59.445,ASRT_percept,2023.2.3,151.47636438491008,2024-08-07 16h36.28.124898 +0800,
sequences/sub0103_percepttesting_sequence_01.csv,0,0,0,4,red,,,,,,,,,,,,,0,1,1,1,0,18,18,18,129.44467930000064,,,,,,,,,,,,,,,,,,,,,,,,,,,,,,,,,,,,,129.43850229999953,129.44467930000064,129.44467930000064,129.64687609999964,129.7606968,4,1,0.3085388999988936,None,129.76175750000039,129.76831889999994,129.82028530000025,129.81366650000018,129.81368250000014,129.82028530000025,130.51432390000082,,,,,,,,,,,sub0103,percept,6,0,2024-08-07_16h35.59.445,ASRT_percept,2023.2.3,151.47636438491008,2024-08-07 16h36.28.124898 +0800,
sequences/sub0103_percepttesting_sequence_01.csv,270,3,3,1,white,,,,,,,,,,,,,0,1,1,1,0,19,19,19,130.5255457000003,,,,,,,,,,,,,,,,,,,,,,,,,,,,,,,,,,,,,130.51529619999928,130.5255457000003,130.5255457000003,130.72901029999957,130.8793736000007,1,1,0.3478307000004861,None,130.8803810999998,130.88953559999936,130.93795580000005,130.93181340000046,130.9318626000004,130.93795580000005,131.6326609000007,,,,,,,,,,,sub0103,percept,6,0,2024-08-07_16h35.59.445,ASRT_percept,2023.2.3,151.47636438491008,2024-08-07 16h36.28.124898 +0800,
sequences/sub0103_percepttesting_sequence_01.csv,270,3,3,1,red,,,,,,,,,,,,,0,1,1,1,0,20,20,20,131.63984829999936,,,,,,,,,,,,,,,,,,,,,,,,,,,,,,,,,,,,,131.6334552999997,131.63984829999936,131.63984829999936,131.8409573000008,132.0081023999992,1,1,0.3617879000012181,None,132.00848960000076,132.01372880000054,132.0690125000001,132.06472510000094,132.06476850000035,132.0690125000001,132.76520999999957,132.77147610000065,,,,,,,,,,sub0103,percept,6,0,2024-08-07_16h35.59.445,ASRT_percept,2023.2.3,151.47636438491008,2024-08-07 16h36.28.124898 +0800,
sequences/sub0103_percepttesting_sequence_01.csv,180,2,2,2,white,,,,,,,,,,,,,0,1,1,1,0,21,21,21,132.77147610000065,,,,,,,,,,,,,,,,,,,,,,,,,,,,,,,,,,,,,132.7659481999999,132.77147610000065,132.77147610000065,132.97240039999997,133.1319414999998,1,0,0.35243639999862353,None,133.1327865000003,133.13949010000033,133.1885158999994,133.18264810000073,133.18270219999977,133.1885158999994,133.88343840000016,133.88974210000015,,,,,,,,,,sub0103,percept,6,0,2024-08-07_16h35.59.445,ASRT_percept,2023.2.3,151.47636438491008,2024-08-07 16h36.28.124898 +0800,
sequences/sub0103_percepttesting_sequence_01.csv,180,2,2,2,red,,,,,,,,,,,,,0,1,1,1,0,22,22,22,133.88974210000015,,,,,,,,,,,,,,,,,,,,,,,,,,,,,,,,,,,,,133.88407299999926,133.88974210000015,133.88974210000015,134.09027620000052,134.31508100000065,2,1,0.41919770000095014,None,134.31612359999963,134.3243882000006,134.37504090000039,134.36974949999967,134.36979880000035,134.37504090000039,135.0705581000002,,,,,,,,,,,sub0103,percept,6,0,2024-08-07_16h35.59.445,ASRT_percept,2023.2.3,151.47636438491008,2024-08-07 16h36.28.124898 +0800,
sequences/sub0103_percepttesting_sequence_01.csv,90,1,1,3,white,,,,,,,,,,,,,0,1,1,1,0,23,23,23,135.07692560000032,,,,,,,,,,,,,,,,,,,,,,,,,,,,,,,,,,,,,135.0711381000001,135.07692560000032,135.07692560000032,135.27802169999995,135.41071290000036,2,0,0.3312755000006291,None,135.41105179999977,135.4161624999997,135.47444039999937,135.46763869999995,135.46770500000093,135.47444039999937,136.16758990000017,136.1735109000001,,,,,,,,,,sub0103,percept,6,0,2024-08-07_16h35.59.445,ASRT_percept,2023.2.3,151.47636438491008,2024-08-07 16h36.28.124898 +0800,
sequences/sub0103_percepttesting_sequence_01.csv,90,1,1,3,red,,,,,,,,,,,,,0,1,1,1,0,24,24,24,136.1735109000001,,,,,,,,,,,,,,,,,,,,,,,,,,,,,,,,,,,,,136.16810310000074,136.1735109000001,136.1735109000001,136.3755428000004,136.53052799999932,3,1,0.35236369999984163,None,136.5313010000009,136.53868350000084,136.5903097999999,136.58452679999937,136.58456660000047,136.5903097999999,137.2849057000003,,,,,,,,,,,sub0103,percept,6,0,2024-08-07_16h35.59.445,ASRT_percept,2023.2.3,151.47636438491008,2024-08-07 16h36.28.124898 +0800,
sequences/sub0103_percepttesting_sequence_01.csv,0,0,0,4,white,,,,,,,,,,,,,0,1,1,1,0,25,25,25,137.29260590000013,,,,,,,,,,,,,,,,,,,,,,,,,,,,,,,,,,,,,137.2856155999998,137.29260590000013,137.29260590000013,137.49353549999978,137.6444002999997,4,1,0.34092510000118637,None,137.64515799999936,137.64992390000043,137.70143310000094,137.69524430000092,137.69528569999966,137.70143310000094,138.3961564000001,,,,,,,,,,,sub0103,percept,6,0,2024-08-07_16h35.59.445,ASRT_percept,2023.2.3,151.47636438491008,2024-08-07 16h36.28.124898 +0800,
sequences/sub0103_percepttesting_sequence_01.csv,270,3,3,1,red,,,,,,,,,,,,,0,1,1,1,0,26,26,26,138.40312169999925,,,,,,,,,,,,,,,,,,,,,,,,,,,,,,,,,,,,,138.39678040000035,138.40312169999925,138.40312169999925,138.6041994999996,138.75280100000055,1,1,0.3433114999988902,None,138.7534680000008,138.76019300000007,138.81250519999958,138.80700760000036,138.80705189999935,138.81250519999958,139.50726190000023,139.5134840999999,,,,,,,,,,sub0103,percept,6,0,2024-08-07_16h35.59.445,ASRT_percept,2023.2.3,151.47636438491008,2024-08-07 16h36.28.124898 +0800,
sequences/sub0103_percepttesting_sequence_01.csv,270,3,3,1,white,,,,,,,,,,,,,0,1,1,1,0,27,27,27,139.5134840999999,,,,,,,,,,,,,,,,,,,,,,,,,,,,,,,,,,,,,139.50757010000052,139.5134840999999,139.5134840999999,139.7156797000007,139.83888060000027,1,1,0.32081599999946775,None,139.84088490000067,139.84815329999947,139.89576420000049,139.89013499999965,139.89017799999965,139.89576420000049,140.59069810000074,,,,,,,,,,,sub0103,percept,6,0,2024-08-07_16h35.59.445,ASRT_percept,2023.2.3,151.47636438491008,2024-08-07 16h36.28.124898 +0800,
sequences/sub0103_percepttesting_sequence_01.csv,180,2,2,2,red,,,,,,,,,,,,,0,1,1,1,0,28,28,28,140.59907009999915,,,,,,,,,,,,,,,,,,,,,,,,,,,,,,,,,,,,,140.59134939999967,140.59907009999915,140.59907009999915,140.79903379999996,140.9896905000005,2,1,0.383438799999567,None,140.9910104999999,140.9977400000007,141.04857860000084,141.04300879999937,141.04305679999925,141.04857860000084,141.7436355000009,,,,,,,,,,,sub0103,percept,6,0,2024-08-07_16h35.59.445,ASRT_percept,2023.2.3,151.47636438491008,2024-08-07 16h36.28.124898 +0800,
sequences/sub0103_percepttesting_sequence_01.csv,180,2,2,2,white,,,,,,,,,,,,,0,1,1,1,0,29,29,29,141.7518089999994,,,,,,,,,,,,,,,,,,,,,,,,,,,,,,,,,,,,,141.7443330999995,141.7518089999994,141.7518089999994,141.95146249999925,142.0856277999992,2,1,0.32679749999988417,None,142.08642510000027,142.09173179999925,142.14592850000008,142.13988849999987,142.13993630000004,142.14592850000008,142.84015940000063,,,,,,,,,,,sub0103,percept,6,0,2024-08-07_16h35.59.445,ASRT_percept,2023.2.3,151.47636438491008,2024-08-07 16h36.28.124898 +0800,
sequences/sub0103_percepttesting_sequence_01.csv,270,3,3,1,red,,,,,,,,,,,,,0,1,1,1,0,30,30,30,142.84692449999966,,,,,,,,,,,,,,,,,,,,,,,,,,,,,,,,,,,,,142.84063779999997,142.84692449999966,142.84692449999966,143.0479649000008,143.1962380999994,1,1,0.34744259999934,None,143.19650309999997,143.2014612999992,143.25704740000037,143.2499031999996,143.2499355,143.25704740000037,143.95145890000094,,,,,,,,,,,sub0103,percept,6,0,2024-08-07_16h35.59.445,ASRT_percept,2023.2.3,151.47636438491008,2024-08-07 16h36.28.124898 +0800,
sequences/sub0103_percepttesting_sequence_01.csv,90,1,1,3,white,,,,,,,,,,,,,0,1,1,1,0,31,31,31,143.95853709999938,,,,,,,,,,,,,,,,,,,,,,,,,,,,,,,,,,,,,143.95205890000034,143.95853709999938,143.95853709999938,144.15975900000012,144.34895759999927,3,1,0.38382649999948626,None,144.34968490000028,144.35400140000093,144.40993949999938,144.40369040000041,144.40372779999961,144.40993949999938,145.10442610000064,,,,,,,,,,,sub0103,percept,6,0,2024-08-07_16h35.59.445,ASRT_percept,2023.2.3,151.47636438491008,2024-08-07 16h36.28.124898 +0800,
sequences/sub0103_percepttesting_sequence_01.csv,180,2,2,2,red,,,,,,,,,,,,,0,1,1,1,0,32,32,32,145.11105739999948,,,,,,,,,,,,,,,,,,,,,,,,,,,,,,,,,,,,,145.10502009999982,145.11105739999948,145.11105739999948,145.31231219999972,145.43291879999924,2,1,0.31373270000040065,None,145.43354519999957,145.4383668999999,145.4933693999992,145.4874486000008,145.48752720000084,145.4933693999992,146.1878125000003,,,,,,,,,,,sub0103,percept,6,0,2024-08-07_16h35.59.445,ASRT_percept,2023.2.3,151.47636438491008,2024-08-07 16h36.28.124898 +0800,
sequences/sub0103_percepttesting_sequence_01.csv,0,0,0,4,white,,,,,,,,,,,,,0,1,1,1,0,33,33,33,146.19625120000092,,,,,,,,,,,,,,,,,,,,,,,,,,,,,,,,,,,,,146.18857059999937,146.19625120000092,146.19625120000092,146.39623329999995,146.50183730000026,4,1,0.30134610000095563,None,146.50246080000034,146.50800130000061,146.5622884000004,146.5563947999999,146.5564316,146.5622884000004,147.25717029999942,,,,,,,,,,,sub0103,percept,6,0,2024-08-07_16h35.59.445,ASRT_percept,2023.2.3,151.47636438491008,2024-08-07 16h36.28.124898 +0800,
sequences/sub0103_percepttesting_sequence_01.csv,180,2,2,2,red,,,,,,,,,,,,,0,1,1,1,0,34,34,34,147.26448230000096,,,,,,,,,,,,,,,,,,,,,,,,,,,,,,,,,,,,,147.25788850000026,147.26448230000096,147.26448230000096,147.46512769999936,147.6458989999992,2,1,0.3740241999985301,None,147.6462014000008,147.65192019999995,147.70824700000048,147.70237149999957,147.7024120999995,147.70824700000048,148.40294039999935,,,,,,,,,,,sub0103,percept,6,0,2024-08-07_16h35.59.445,ASRT_percept,2023.2.3,151.47636438491008,2024-08-07 16h36.28.124898 +0800,
sequences/sub0103_percepttesting_sequence_01.csv,270,3,3,1,white,,,,,,,,,,,,,0,1,1,1,0,35,35,35,148.40971890000037,,,,,,,,,,,,,,,,,,,,,,,,,,,,,,,,,,,,,148.40367390000029,148.40971890000037,148.40971890000037,148.6110047000002,148.7525310000001,1,1,0.3393445999990945,None,148.7532085999992,148.7597836999994,148.81296529999963,148.8072611000007,148.8073101000009,148.81296529999963,149.50757560000056,149.5142266999992,,,,,,,,,,sub0103,percept,6,0,2024-08-07_16h35.59.445,ASRT_percept,2023.2.3,151.47636438491008,2024-08-07 16h36.28.124898 +0800,
sequences/sub0103_percepttesting_sequence_01.csv,270,3,3,1,red,,,,,,,,,,,,,0,1,1,1,0,36,36,36,149.5142266999992,,,,,,,,,,,,,,,,,,,,,,,,,,,,,,,,,,,,,149.50816610000038,149.5142266999992,149.5142266999992,149.71519790000093,149.8488999000001,1,1,0.32866810000086844,None,149.8496486999993,149.85871179999958,149.90941899999962,149.9040903999994,149.90414039999996,149.90941899999962,150.60469609999927,,,,,,,,,,,sub0103,percept,6,0,2024-08-07_16h35.59.445,ASRT_percept,2023.2.3,151.47636438491008,2024-08-07 16h36.28.124898 +0800,
sequences/sub0103_percepttesting_sequence_01.csv,180,2,2,2,white,,,,,,,,,,,,,0,1,1,1,0,37,37,37,150.61165129999972,,,,,,,,,,,,,,,,,,,,,,,,,,,,,,,,,,,,,150.60593789999984,150.61165129999972,150.61165129999972,150.8124229999994,151.03824410000016,2,1,0.4218261000005441,None,151.03870880000068,151.04257270000016,151.09691980000025,151.09059230000094,151.09060839999984,151.09691980000025,151.79117340000084,,,,,,,,,,,sub0103,percept,6,0,2024-08-07_16h35.59.445,ASRT_percept,2023.2.3,151.47636438491008,2024-08-07 16h36.28.124898 +0800,
sequences/sub0103_percepttesting_sequence_01.csv,0,0,0,4,red,,,,,,,,,,,,,0,1,1,1,0,38,38,38,151.79820810000092,,,,,,,,,,,,,,,,,,,,,,,,,,,,,,,,,,,,,151.79162870000073,151.79820810000092,151.79820810000092,151.99932059999992,152.17604279999978,4,1,0.3700012000008428,None,152.17682179999974,152.18269250000048,152.23715040000025,152.23110029999953,152.23116140000093,152.23715040000025,152.93163780000032,152.93767819999994,,,,,,,,,,sub0103,percept,6,0,2024-08-07_16h35.59.445,ASRT_percept,2023.2.3,151.47636438491008,2024-08-07 16h36.28.124898 +0800,
sequences/sub0103_percepttesting_sequence_01.csv,90,1,1,3,white,,,,,,,,,,,,,0,1,1,1,0,39,39,39,152.93767819999994,,,,,,,,,,,,,,,,,,,,,,,,,,,,,,,,,,,,,152.93237319999935,152.93767819999994,152.93767819999994,153.13848449999932,153.2447644999993,3,1,0.299854900000355,None,153.24555150000015,153.25089690000095,153.30532889999995,153.29881320000095,153.29884540000057,153.30532889999995,153.99966259999928,,,,,,,,,,,sub0103,percept,6,0,2024-08-07_16h35.59.445,ASRT_percept,2023.2.3,151.47636438491008,2024-08-07 16h36.28.124898 +0800,
sequences/sub0103_percepttesting_sequence_01.csv,180,2,2,2,red,,,,,,,,,,,,,0,1,1,1,0,40,40,40,154.00662550000015,,,,,,,,,,,,,,,,,,,,,,,,,,,,,,,,,,,,,153.99993109999923,154.00662550000015,154.00662550000015,154.20849260000068,154.3380613999998,2,1,0.32613710000077845,None,154.33901870000045,154.3449369000009,154.39596549999987,154.3896697,154.3897135999996,154.39596549999987,155.09040959999948,,,,,,,,,,,sub0103,percept,6,0,2024-08-07_16h35.59.445,ASRT_percept,2023.2.3,151.47636438491008,2024-08-07 16h36.28.124898 +0800,
sequences/sub0103_percepttesting_sequence_01.csv,0,0,0,4,white,,,,,,,,,,,,,0,1,1,1,0,41,41,41,155.09809759999916,,,,,,,,,,,,,,,,,,,,,,,,,,,,,,,,,,,,,155.09104979999938,155.09809759999916,155.09809759999916,155.29843129999972,155.45497009999963,4,1,0.35222430000067106,None,155.4557903999994,155.4633434999996,155.51378690000092,155.5093610999993,155.50940620000074,155.51378690000092,156.20961200000056,156.21732789999987,,,,,,,,,,sub0103,percept,6,0,2024-08-07_16h35.59.445,ASRT_percept,2023.2.3,151.47636438491008,2024-08-07 16h36.28.124898 +0800,
sequences/sub0103_percepttesting_sequence_01.csv,270,3,3,1,red,,,,,,,,,,,,,0,1,1,1,0,42,42,42,156.21732789999987,,,,,,,,,,,,,,,,,,,,,,,,,,,,,,,,,,,,,156.21044070000062,156.21732789999987,156.21732789999987,156.41645810000045,156.68242699999973,1,1,0.46103369999946153,None,156.68318229999932,156.6881455999992,156.74279150000075,156.73678520000067,156.73682569999983,156.74279150000075,157.43714179999915,,,,,,,,,,,sub0103,percept,6,0,2024-08-07_16h35.59.445,ASRT_percept,2023.2.3,151.47636438491008,2024-08-07 16h36.28.124898 +0800,
sequences/sub0103_percepttesting_sequence_01.csv,270,3,3,1,white,,,,,,,,,,,,,0,1,1,1,0,43,43,43,157.4435835000004,,,,,,,,,,,,,,,,,,,,,,,,,,,,,,,,,,,,,157.43769760000032,157.4435835000004,157.4435835000004,157.64535249999972,157.80117840000094,1,1,0.3550254000001587,None,157.8018804000003,157.80791639999916,157.86045550000017,157.85446170000068,157.85452749999968,157.86045550000017,158.5549461999999,,,,,,,,,,,sub0103,percept,6,0,2024-08-07_16h35.59.445,ASRT_percept,2023.2.3,151.47636438491008,2024-08-07 16h36.28.124898 +0800,
sequences/sub0103_percepttesting_sequence_01.csv,90,1,1,3,red,,,,,,,,,,,,,0,1,1,1,0,44,44,44,158.56156460000057,,,,,,,,,,,,,,,,,,,,,,,,,,,,,,,,,,,,,158.55521840000074,158.56156460000057,158.56156460000057,158.76352489999954,158.93744399999923,3,1,0.3714689000007638,None,158.93775370000003,158.94392169999992,159.00059929999952,158.9941149999995,158.99417490000087,159.00059929999952,159.69442759999947,,,,,,,,,,,sub0103,percept,6,0,2024-08-07_16h35.59.445,ASRT_percept,2023.2.3,151.47636438491008,2024-08-07 16h36.28.124898 +0800,
sequences/sub0103_percepttesting_sequence_01.csv,180,2,2,2,white,,,,,,,,,,,,,0,1,1,1,0,45,45,45,159.7008994000007,,,,,,,,,,,,,,,,,,,,,,,,,,,,,,,,,,,,,159.69514039999922,159.7008994000007,159.7008994000007,159.9018627000005,160.02530920000027,2,1,0.3201900999993086,None,160.0264446000001,160.03496319999977,160.0831087000006,160.07726709999952,160.07732140000007,160.0831087000006,160.77767400000084,,,,,,,,,,,sub0103,percept,6,0,2024-08-07_16h35.59.445,ASRT_percept,2023.2.3,151.47636438491008,2024-08-07 16h36.28.124898 +0800,
sequences/sub0103_percepttesting_sequence_01.csv,90,1,1,3,red,,,,,,,,,,,,,0,1,1,1,0,46,46,46,160.78723510000054,,,,,,,,,,,,,,,,,,,,,,,,,,,,,,,,,,,,,160.77858910000032,160.78723510000054,160.78723510000054,160.99307790000057,161.19573429999946,3,1,0.404815799998687,None,161.19603319999987,161.20105089999925,161.2566081999994,161.2502628000002,161.25030289999995,161.2566081999994,161.95095129999936,,,,,,,,,,,sub0103,percept,6,0,2024-08-07_16h35.59.445,ASRT_percept,2023.2.3,151.47636438491008,2024-08-07 16h36.28.124898 +0800,
sequences/sub0103_percepttesting_sequence_01.csv,90,1,1,3,white,,,,,,,,,,,,,0,1,1,1,0,47,47,47,161.95754090000082,,,,,,,,,,,,,,,,,,,,,,,,,,,,,,,,,,,,,161.9514663000009,161.95754090000082,161.95754090000082,162.1598257000005,162.28991060000044,2,0,0.32266229999913776,None,162.29072900000028,162.29621530000077,162.34880130000056,162.3422258999999,162.34229629999936,162.34880130000056,163.04218369999944,163.0479489999998,,,,,,,,,,sub0103,percept,6,0,2024-08-07_16h35.59.445,ASRT_percept,2023.2.3,151.47636438491008,2024-08-07 16h36.28.124898 +0800,
sequences/sub0103_percepttesting_sequence_01.csv,270,3,3,1,red,,,,,,,,,,,,,0,1,1,1,0,48,48,48,163.0479489999998,,,,,,,,,,,,,,,,,,,,,,,,,,,,,,,,,,,,,163.04273959999955,163.0479489999998,163.0479489999998,163.24991910000062,163.3789080000006,1,1,0.3275623999998061,None,163.37976049999997,163.38480170000003,163.4367880000009,163.4311820999992,163.4312248999995,163.4367880000009,164.13176249999924,,,,,,,,,,,sub0103,percept,6,0,2024-08-07_16h35.59.445,ASRT_percept,2023.2.3,151.47636438491008,2024-08-07 16h36.28.124898 +0800,
sequences/sub0103_percepttesting_sequence_01.csv,0,0,0,4,white,,,,,,,,,,,,,0,1,1,1,0,49,49,49,164.13823570000022,,,,,,,,,,,,,,,,,,,,,,,,,,,,,,,,,,,,,164.13233299999956,164.13823570000022,164.13823570000022,164.34003920000032,164.47561850000056,4,1,0.3299936000003072,None,164.47647850000067,164.48212430000058,164.5343954,164.52872080000088,164.52882359999967,164.5343954,165.2294927999992,,,,,,,,,,,sub0103,percept,6,0,2024-08-07_16h35.59.445,ASRT_percept,2023.2.3,151.47636438491008,2024-08-07 16h36.28.124898 +0800,
sequences/sub0103_percepttesting_sequence_01.csv,90,1,1,3,red,,,,,,,,,,,,,0,1,1,1,0,50,50,50,165.23705560000053,,,,,,,,,,,,,,,,,,,,,,,,,,,,,,,,,,,,,165.23013379999975,165.23705560000053,165.23705560000053,165.43701200000032,165.6062084999994,3,1,0.36122830000022077,None,165.60688649999975,165.6118162999992,165.66627680000056,165.6610409999994,165.6610983999999,165.66627680000056,166.36188629999924,166.3684632000004,,,,,,,,,,sub0103,percept,6,0,2024-08-07_16h35.59.445,ASRT_percept,2023.2.3,151.47636438491008,2024-08-07 16h36.28.124898 +0800,
sequences/sub0103_percepttesting_sequence_01.csv,270,3,3,1,white,,,,,,,,,,,,,0,1,1,1,0,51,51,51,166.3684632000004,,,,,,,,,,,,,,,,,,,,,,,,,,,,,,,,,,,,,166.3624959000008,166.3684632000004,166.3684632000004,166.56940639999993,166.76551029999973,1,1,0.39445730000079493,None,166.76619519999986,166.77100520000022,166.82584250000036,166.82014139999956,166.82018269999935,166.82584250000036,167.5213463,,,,,,,,,,,sub0103,percept,6,0,2024-08-07_16h35.59.445,ASRT_percept,2023.2.3,151.47636438491008,2024-08-07 16h36.28.124898 +0800,
sequences/sub0103_percepttesting_sequence_01.csv,0,0,0,4,red,,,,,,,,,,,,,0,1,1,1,0,52,52,52,167.5280963999994,,,,,,,,,,,,,,,,,,,,,,,,,,,,,,,,,,,,,167.52232259999982,167.5280963999994,167.5280963999994,167.72878090000086,167.8934473999998,4,1,0.35903180000059365,None,167.89446189999944,167.90400600000066,167.95093749999978,167.94564569999966,167.9456979000006,167.95093749999978,168.64634900000055,168.65310950000094,,,,,,,,,,sub0103,percept,6,0,2024-08-07_16h35.59.445,ASRT_percept,2023.2.3,151.47636438491008,2024-08-07 16h36.28.124898 +0800,
sequences/sub0103_percepttesting_sequence_01.csv,180,2,2,2,white,,,,,,,,,,,,,0,1,1,1,0,53,53,53,168.65310950000094,,,,,,,,,,,,,,,,,,,,,,,,,,,,,,,,,,,,,168.6469993999999,168.65310950000094,168.65310950000094,168.8530664000009,169.04366069999924,2,1,0.3847779999996419,None,169.04460149999977,169.0500766999994,169.10351450000053,169.0975015999993,169.0975808000003,169.10351450000053,169.7983303000001,,,,,,,,,,,sub0103,percept,6,0,2024-08-07_16h35.59.445,ASRT_percept,2023.2.3,151.47636438491008,2024-08-07 16h36.28.124898 +0800,
sequences/sub0103_percepttesting_sequence_01.csv,0,0,0,4,red,,,,,,,,,,,,,0,1,1,1,0,54,54,54,169.80772950000028,,,,,,,,,,,,,,,,,,,,,,,,,,,,,,,,,,,,,169.79915249999976,169.80772950000028,169.80772950000028,170.01313739999932,170.18309469999986,4,1,0.36803280000094674,None,170.18392929999936,170.1910967999993,170.24279380000007,170.23698429999968,170.2370308999998,170.24279380000007,170.93665510000028,170.9433743999998,,,,,,,,,,sub0103,percept,6,0,2024-08-07_16h35.59.445,ASRT_percept,2023.2.3,151.47636438491008,2024-08-07 16h36.28.124898 +0800,
sequences/sub0103_percepttesting_sequence_01.csv,90,1,1,3,white,,,,,,,,,,,,,0,1,1,1,0,55,55,55,170.9433743999998,,,,,,,,,,,,,,,,,,,,,,,,,,,,,,,,,,,,,170.93691509999917,170.9433743999998,170.9433743999998,171.1454549000009,171.30053849999967,3,1,0.3498601999999664,None,171.30113700000038,171.3052186999994,171.36024499999985,171.35437850000017,171.3544581999995,171.36024499999985,172.0548792999998,,,,,,,,,,,sub0103,percept,6,0,2024-08-07_16h35.59.445,ASRT_percept,2023.2.3,151.47636438491008,2024-08-07 16h36.28.124898 +0800,
sequences/sub0103_percepttesting_sequence_01.csv,270,3,3,1,red,,,,,,,,,,,,,0,1,1,1,0,56,56,56,172.06200530000024,,,,,,,,,,,,,,,,,,,,,,,,,,,,,,,,,,,,,172.05557500000032,172.06200530000024,172.06200530000024,172.2630852000002,172.48680849999982,1,1,0.4189366999999038,None,172.48710890000075,172.4919976000001,172.5478605999997,172.54183990000092,172.54186970000046,172.5478605999997,173.24219529999937,,,,,,,,,,,sub0103,percept,6,0,2024-08-07_16h35.59.445,ASRT_percept,2023.2.3,151.47636438491008,2024-08-07 16h36.28.124898 +0800,
sequences/sub0103_percepttesting_sequence_01.csv,0,0,0,4,white,,,,,,,,,,,,,0,1,1,1,0,57,57,57,173.24890269999923,,,,,,,,,,,,,,,,,,,,,,,,,,,,,,,,,,,,,173.24293120000038,173.24890269999923,173.24890269999923,173.45094249999966,173.61361079999915,4,1,0.36088980000022275,None,173.61448050000035,173.6208485999996,173.67329840000093,173.66747150000083,173.66752110000016,173.67329840000093,174.36761099999967,,,,,,,,,,,sub0103,percept,6,0,2024-08-07_16h35.59.445,ASRT_percept,2023.2.3,151.47636438491008,2024-08-07 16h36.28.124898 +0800,
sequences/sub0103_percepttesting_sequence_01.csv,90,1,1,3,red,,,,,,,,,,,,,0,1,1,1,0,58,58,58,174.37468249999984,,,,,,,,,,,,,,,,,,,,,,,,,,,,,,,,,,,,,174.36817189999965,174.37468249999984,174.37468249999984,174.57573179999963,174.68970790000094,3,1,0.30783920000067155,None,174.6906816999999,174.69778319999932,174.74912620000032,174.74339730000065,174.7434448999993,174.74912620000032,175.44395020000047,,,,,,,,,,,sub0103,percept,6,0,2024-08-07_16h35.59.445,ASRT_percept,2023.2.3,151.47636438491008,2024-08-07 16h36.28.124898 +0800,
sequences/sub0103_percepttesting_sequence_01.csv,270,3,3,1,white,,,,,,,,,,,,,0,1,1,1,0,59,59,59,175.45107649999954,,,,,,,,,,,,,,,,,,,,,,,,,,,,,,,,,,,,,175.44460120000076,175.45107649999954,175.45107649999954,175.65197930000068,175.83658070000092,1,1,0.3806948999990709,None,175.83737309999924,175.84287360000053,175.89655259999927,175.88970829999926,175.8897608999996,175.89655259999927,176.5898988000008,,,,,,,,,,,sub0103,percept,6,0,2024-08-07_16h35.59.445,ASRT_percept,2023.2.3,151.47636438491008,2024-08-07 16h36.28.124898 +0800,
sequences/sub0103_percepttesting_sequence_01.csv,180,2,2,2,red,,,,,,,,,,,,,0,1,1,1,0,60,60,60,176.5963953999999,,,,,,,,,,,,,,,,,,,,,,,,,,,,,,,,,,,,,176.59058000000005,176.5963953999999,176.5963953999999,176.79774039999938,177.00723990000006,2,1,0.4036852999997791,None,177.00780269999996,177.01305449999927,177.06917059999978,177.06315039999936,177.0631940000003,177.06917059999978,177.76428990000022,177.77237950000017,,,,,,,,,,sub0103,percept,6,0,2024-08-07_16h35.59.445,ASRT_percept,2023.2.3,151.47636438491008,2024-08-07 16h36.28.124898 +0800,
sequences/sub0103_percepttesting_sequence_01.csv,180,2,2,2,white,,,,,,,,,,,,,0,1,1,1,0,61,61,61,177.77237950000017,,,,,,,,,,,,,,,,,,,,,,,,,,,,,,,,,,,,,177.76501610000014,177.77237950000017,177.77237950000017,177.9717600999993,178.20338719999927,2,1,0.42621689999941736,None,178.20404059999964,178.21102129999963,178.26327160000073,178.25748779999958,178.25754340000094,178.26327160000073,178.95818099999997,178.9645120999994,,,,,,,,,,sub0103,percept,6,0,2024-08-07_16h35.59.445,ASRT_percept,2023.2.3,151.47636438491008,2024-08-07 16h36.28.124898 +0800,
sequences/sub0103_percepttesting_sequence_01.csv,90,1,1,3,red,,,,,,,,,,,,,0,1,1,1,0,62,62,62,178.9645120999994,,,,,,,,,,,,,,,,,,,,,,,,,,,,,,,,,,,,,178.95885330000056,178.9645120999994,178.9645120999994,179.1658521999998,179.32911100000092,3,1,0.35846789999959583,None,179.32988119999936,179.33615810000083,179.38803449999978,179.38213949999954,179.38217409999925,179.38803449999978,180.0824778999995,180.08925950000048,,,,,,,,,,sub0103,percept,6,0,2024-08-07_16h35.59.445,ASRT_percept,2023.2.3,151.47636438491008,2024-08-07 16h36.28.124898 +0800,
sequences/sub0103_percepttesting_sequence_01.csv,90,1,1,3,white,,,,,,,,,,,,,0,1,1,1,0,63,63,63,180.08925950000048,,,,,,,,,,,,,,,,,,,,,,,,,,,,,,,,,,,,,180.0827365999994,180.08925950000048,180.08925950000048,180.29057579999971,180.50077600000077,3,1,0.40615129999969213,None,180.50159239999994,180.50792460000048,180.56202959999973,180.55531789999986,180.55534009999974,180.56202959999973,181.2566614999996,,,,,,,,,,,sub0103,percept,6,0,2024-08-07_16h35.59.445,ASRT_percept,2023.2.3,151.47636438491008,2024-08-07 16h36.28.124898 +0800,
sequences/sub0103_percepttesting_sequence_01.csv,90,1,1,3,red,,,,,,,,,,,,,0,1,1,1,0,64,64,64,181.2629849999994,,,,,,,,,,,,,,,,,,,,,,,,,,,,,,,,,,,,,181.25732939999943,181.2629849999994,181.2629849999994,181.46437789999982,181.63169170000037,3,1,0.36201339999934135,None,181.63225369999964,181.63936269999977,181.69328730000052,181.6877672999999,181.68780870000046,181.69328730000052,182.3880265000007,,,,,,,,,,,sub0103,percept,6,0,2024-08-07_16h35.59.445,ASRT_percept,2023.2.3,151.47636438491008,2024-08-07 16h36.28.124898 +0800,
sequences/sub0103_percepttesting_sequence_01.csv,0,0,0,4,white,,,,,,,,,,,,,0,1,1,1,0,65,65,65,182.39503960000002,,,,,,,,,,,,,,,,,,,,,,,,,,,,,,,,,,,,,182.38860770000065,182.39503960000002,182.39503960000002,182.59631350000018,182.76500809999925,4,1,0.36265800000001036,None,182.7658487000008,182.7709446000008,182.8253793999993,182.8189521000004,182.8189927000003,182.8253793999993,183.5202528000009,,,,,,,,,,,sub0103,percept,6,0,2024-08-07_16h35.59.445,ASRT_percept,2023.2.3,151.47636438491008,2024-08-07 16h36.28.124898 +0800,
sequences/sub0103_percepttesting_sequence_01.csv,270,3,3,1,red,,,,,,,,,,,,,0,1,1,1,0,66,66,66,183.52649270000074,,,,,,,,,,,,,,,,,,,,,,,,,,,,,,,,,,,,,183.5209300000006,183.52649270000074,183.52649270000074,183.72834089999924,183.90381180000077,1,1,0.3714845000013156,None,183.9045311000009,183.90858130000015,183.96431979999943,183.9589649999998,183.95900400000028,183.96431979999943,184.65949790000013,184.6659982000001,,,,,,,,,,sub0103,percept,6,0,2024-08-07_16h35.59.445,ASRT_percept,2023.2.3,151.47636438491008,2024-08-07 16h36.28.124898 +0800,
sequences/sub0103_percepttesting_sequence_01.csv,270,3,3,1,white,,,,,,,,,,,,,0,1,1,1,0,67,67,67,184.6659982000001,,,,,,,,,,,,,,,,,,,,,,,,,,,,,,,,,,,,,184.66007960000024,184.6659982000001,184.6659982000001,184.86753189999945,184.95305689999986,1,1,0.2825099000001501,None,184.95382840000093,184.95939960000032,185.0127081999999,185.00710459999937,185.00712209999983,185.0127081999999,185.70766229999936,,,,,,,,,,,sub0103,percept,6,0,2024-08-07_16h35.59.445,ASRT_percept,2023.2.3,151.47636438491008,2024-08-07 16h36.28.124898 +0800,
sequences/sub0103_percepttesting_sequence_01.csv,270,3,3,1,red,,,,,,,,,,,,,0,1,1,1,0,68,68,68,185.71409820000008,,,,,,,,,,,,,,,,,,,,,,,,,,,,,,,,,,,,,185.7081889000001,185.71409820000008,185.71409820000008,185.91577160000088,185.98930640000071,1,1,0.27184630000010657,None,185.9900460000008,185.9982173999997,186.0471147999997,186.04164160000073,186.0416898000003,186.0471147999997,186.74223510000047,,,,,,,,,,,sub0103,percept,6,0,2024-08-07_16h35.59.445,ASRT_percept,2023.2.3,151.47636438491008,2024-08-07 16h36.28.124898 +0800,
sequences/sub0103_percepttesting_sequence_01.csv,180,2,2,2,white,,,,,,,,,,,,,0,1,1,1,0,69,69,69,186.74957929999982,,,,,,,,,,,,,,,,,,,,,,,,,,,,,,,,,,,,,186.7429833999995,186.74957929999982,186.74957929999982,186.95066659999975,187.20848640000077,2,1,0.4523055999998178,None,187.20905160000075,187.21454679999988,187.2696218000001,187.26445590000003,187.26449800000046,187.2696218000001,187.96473519999927,,,,,,,,,,,sub0103,percept,6,0,2024-08-07_16h35.59.445,ASRT_percept,2023.2.3,151.47636438491008,2024-08-07 16h36.28.124898 +0800,
sequences/sub0103_percepttesting_sequence_01.csv,90,1,1,3,red,,,,,,,,,,,,,0,1,1,1,0,70,70,70,187.97218900000007,,,,,,,,,,,,,,,,,,,,,,,,,,,,,,,,,,,,,187.96581239999978,187.97218900000007,187.97218900000007,188.17239119999977,188.32250449999992,3,1,0.345938100001149,None,188.32326509999984,188.3307206999998,188.38300049999998,188.3763626,188.37639449999915,188.38300049999998,189.07608869999967,189.08224750000045,,,,,,,,,,sub0103,percept,6,0,2024-08-07_16h35.59.445,ASRT_percept,2023.2.3,151.47636438491008,2024-08-07 16h36.28.124898 +0800,
sequences/sub0103_percepttesting_sequence_01.csv,90,1,1,3,white,,,,,,,,,,,,,0,1,1,1,0,71,71,71,189.08224750000045,,,,,,,,,,,,,,,,,,,,,,,,,,,,,,,,,,,,,189.07659570000033,189.08224750000045,189.08224750000045,189.2835950000008,189.41841740000018,3,1,0.3287482000014279,None,189.41926349999994,189.42690030000085,189.4778538999999,189.4718171000004,189.47185940000054,189.4778538999999,190.17259990000093,,,,,,,,,,,sub0103,percept,6,0,2024-08-07_16h35.59.445,ASRT_percept,2023.2.3,151.47636438491008,2024-08-07 16h36.28.124898 +0800,
sequences/sub0103_percepttesting_sequence_01.csv,180,2,2,2,red,,,,,,,,,,,,,0,1,1,1,0,72,72,72,190.17952569999943,,,,,,,,,,,,,,,,,,,,,,,,,,,,,,,,,,,,,190.1734749999996,190.17952569999943,190.17952569999943,190.3810369999992,190.61291800000072,2,1,0.4270151000000624,None,190.61370420000094,190.6188944000005,190.67342950000057,190.66693379999924,190.6669837999998,190.67342950000057,191.36753470000076,,,,,,,,,,,sub0103,percept,6,0,2024-08-07_16h35.59.445,ASRT_percept,2023.2.3,151.47636438491008,2024-08-07 16h36.28.124898 +0800,
sequences/sub0103_percepttesting_sequence_01.csv,0,0,0,4,white,,,,,,,,,,,,,0,1,1,1,0,73,73,73,191.3744098999996,,,,,,,,,,,,,,,,,,,,,,,,,,,,,,,,,,,,,191.36808390000078,191.3744098999996,191.3744098999996,191.5759911999994,191.77324520000002,4,1,0.394472300000416,None,191.77390249999917,191.78047929999957,191.8322207000001,191.82669329999953,191.8267324999997,191.8322207000001,192.52708399999938,,,,,,,,,,,sub0103,percept,6,0,2024-08-07_16h35.59.445,ASRT_percept,2023.2.3,151.47636438491008,2024-08-07 16h36.28.124898 +0800,
sequences/sub0103_percepttesting_sequence_01.csv,0,0,0,4,red,,,,,,,,,,,,,0,1,1,1,0,74,74,74,192.53554910000094,,,,,,,,,,,,,,,,,,,,,,,,,,,,,,,,,,,,,192.52776079999967,192.53554910000094,192.53554910000094,192.7348063999998,192.87705180000012,4,1,0.3346369000009872,None,192.8780222000005,192.8863211000007,192.9364729000008,192.93075879999924,192.9307991000005,192.9364729000008,193.63111729999946,,,,,,,,,,,sub0103,percept,6,0,2024-08-07_16h35.59.445,ASRT_percept,2023.2.3,151.47636438491008,2024-08-07 16h36.28.124898 +0800,
sequences/sub0103_percepttesting_sequence_01.csv,270,3,3,1,white,,,,,,,,,,,,,0,1,1,1,0,75,75,75,193.63770619999923,,,,,,,,,,,,,,,,,,,,,,,,,,,,,,,,,,,,,193.63170920000084,193.63770619999923,193.63770619999923,193.83941509999931,193.97232740000072,1,1,0.3295009999983449,None,193.9728257000006,193.9777025000003,194.03338599999915,194.02674809999917,194.0267717000006,194.03338599999915,194.72829470000033,,,,,,,,,,,sub0103,percept,6,0,2024-08-07_16h35.59.445,ASRT_percept,2023.2.3,151.47636438491008,2024-08-07 16h36.28.124898 +0800,
sequences/sub0103_percepttesting_sequence_01.csv,180,2,2,2,red,,,,,,,,,,,,,0,1,1,1,0,76,76,76,194.73651380000047,,,,,,,,,,,,,,,,,,,,,,,,,,,,,,,,,,,,,194.7290869999997,194.73651380000047,194.73651380000047,194.93655930000023,195.14281870000013,2,1,0.40076240000053076,None,195.14408659999935,195.15265050000016,195.20102600000064,195.1949939999995,195.1950625999998,195.20102600000064,195.89552490000096,,,,,,,,,,,sub0103,percept,6,0,2024-08-07_16h35.59.445,ASRT_percept,2023.2.3,151.47636438491008,2024-08-07 16h36.28.124898 +0800,
sequences/sub0103_percepttesting_sequence_01.csv,180,2,2,2,white,,,,,,,,,,,,,0,1,1,1,0,77,77,77,195.9040227000005,,,,,,,,,,,,,,,,,,,,,,,,,,,,,,,,,,,,,195.89652899999965,195.9040227000005,195.9040227000005,196.1097303000006,196.18291900000077,2,1,0.27178619999904186,None,196.18379409999943,196.19040029999996,196.24169090000032,196.23578559999987,196.2358294000005,196.24169090000032,196.93706109999948,,,,,,,,,,,sub0103,percept,6,0,2024-08-07_16h35.59.445,ASRT_percept,2023.2.3,151.47636438491008,2024-08-07 16h36.28.124898 +0800,
sequences/sub0103_percepttesting_sequence_01.csv,0,0,0,4,red,,,,,,,,,,,,,0,1,1,1,0,78,78,78,196.94656779999968,,,,,,,,,,,,,,,,,,,,,,,,,,,,,,,,,,,,,196.93788870000026,196.94656779999968,196.94656779999968,197.14624999999978,197.3016392999998,4,1,0.34584800000084215,None,197.30241550000028,197.30831319999925,197.3596233999997,197.35322559999986,197.3532482999999,197.3596233999997,198.05457770000066,,,,,,,,,,,sub0103,percept,6,0,2024-08-07_16h35.59.445,ASRT_percept,2023.2.3,151.47636438491008,2024-08-07 16h36.28.124898 +0800,
sequences/sub0103_percepttesting_sequence_01.csv,90,1,1,3,white,,,,,,,,,,,,,0,1,1,1,0,79,79,79,198.06103710000025,,,,,,,,,,,,,,,,,,,,,,,,,,,,,,,,,,,,,198.05540309999924,198.06103710000025,198.06103710000025,198.26319650000005,198.4334101000004,3,1,0.3684415000006993,None,198.43441189999976,198.44285130000026,198.4921187,198.4857434000005,198.48578610000004,198.4921187,199.1861024000009,,,,,,,,,,,sub0103,percept,6,0,2024-08-07_16h35.59.445,ASRT_percept,2023.2.3,151.47636438491008,2024-08-07 16h36.28.124898 +0800,
sequences/sub0103_percepttesting_sequence_01.csv,0,0,0,4,red,,,,,,,,,,,,,0,1,1,1,0,80,80,80,199.19389950000004,,,,,,,,,,,,,,,,,,,,,,,,,,,,,,,,,,,,,199.18635940000058,199.19389950000004,199.19389950000004,199.3941018000005,199.5538016999999,4,1,0.35494110000036017,None,199.55484290000095,199.5647153000009,199.6100901000009,199.6039514999993,199.60399909999978,199.6100901000009,200.3047358999993,,,,,,,,,,,sub0103,percept,6,0,2024-08-07_16h35.59.445,ASRT_percept,2023.2.3,151.47636438491008,2024-08-07 16h36.28.124898 +0800,
sequences/sub0103_percepttesting_sequence_01.csv,0,0,0,4,white,,,,,,,,,,,,,0,1,1,1,0,81,81,81,200.31183880000026,,,,,,,,,,,,,,,,,,,,,,,,,,,,,,,,,,,,,200.30565009999918,200.31183880000026,200.31183880000026,200.5130148999997,200.61711880000075,4,1,0.3031210999997711,None,200.6174504999999,200.62315230000058,200.67925599999944,200.6730619000009,200.67310800000087,200.67925599999944,201.37417339999956,,,,,,,,,,,sub0103,percept,6,0,2024-08-07_16h35.59.445,ASRT_percept,2023.2.3,151.47636438491008,2024-08-07 16h36.28.124898 +0800,
sequences/sub0103_percepttesting_sequence_01.csv,90,1,1,3,red,,,,,,,,,,,,,0,1,1,1,0,82,82,82,201.3821769999995,,,,,,,,,,,,,,,,,,,,,,,,,,,,,,,,,,,,,201.37491500000033,201.3821769999995,201.3821769999995,201.58256869999968,201.73927940000067,3,1,0.3535572000000684,None,201.7403166999993,201.74689000000035,201.79731720000018,201.79130169999917,201.79134689999955,201.79731720000018,202.49154400000043,202.49875000000065,,,,,,,,,,sub0103,percept,6,0,2024-08-07_16h35.59.445,ASRT_percept,2023.2.3,151.47636438491008,2024-08-07 16h36.28.124898 +0800,
sequences/sub0103_percepttesting_sequence_01.csv,270,3,3,1,white,,,,,,,,,,,,,0,1,1,1,0,83,83,83,202.49875000000065,,,,,,,,,,,,,,,,,,,,,,,,,,,,,,,,,,,,,202.4917888,202.49875000000065,202.49875000000065,202.70029409999916,202.83950960000038,1,1,0.33504119999997783,None,202.83976939999957,202.84713340000053,202.9011472000002,202.89635199999975,202.89641090000077,202.9011472000002,203.59606709999935,203.60243889999947,,,,,,,,,,sub0103,percept,6,0,2024-08-07_16h35.59.445,ASRT_percept,2023.2.3,151.47636438491008,2024-08-07 16h36.28.124898 +0800,
sequences/sub0103_percepttesting_sequence_01.csv,0,0,0,4,red,,,,,,,,,,,,,0,1,1,1,0,84,84,84,203.60243889999947,,,,,,,,,,,,,,,,,,,,,,,,,,,,,,,,,,,,,203.59649480000007,203.60243889999947,203.60243889999947,203.80481809999947,203.91741680000086,4,1,0.3079353000011906,None,203.9181604000005,203.92329470000004,203.97760150000067,203.97154489999957,203.97158800000034,203.97760150000067,204.67205880000074,,,,,,,,,,,sub0103,percept,6,0,2024-08-07_16h35.59.445,ASRT_percept,2023.2.3,151.47636438491008,2024-08-07 16h36.28.124898 +0800,
sequences/sub0103_percepttesting_sequence_01.csv,,,,,,,,,,,,,,,,,,0,1,1,1,,,,,,,,,,,,,,,,,,,,,,,,,,,,,,,,,,,,,,,,,,,,,,,,,,,,,,,,,,,204.6722215000009,204.68647760000022,204.68647760000022,207.08525329999975,space,2.3921532000003936,None,,,sub0103,percept,6,0,2024-08-07_16h35.59.445,ASRT_percept,2023.2.3,151.47636438491008,2024-08-07 16h36.28.124898 +0800,
sequences/sub0103_percepttesting_sequence_02.csv,0,0,0,4,red,,,,,,,,,,,,,0,2,2,2,0,0,0,0,208.13978769999994,,,,,,,,,,,,,,,,,,,,,,,,,,,,,,,,,,207.08602930000052,207.08994239999993,208.08892770000057,208.13616320000074,208.13978769999994,208.13978769999994,208.34592390000034,208.4684957999998,4,1,0.322486499999286,None,208.46967790000053,208.47753680000096,208.5259750999994,208.51888320000035,208.51889870000014,208.5259750999994,209.2209096000006,,,,,,,,,,,sub0103,percept,6,0,2024-08-07_16h35.59.445,ASRT_percept,2023.2.3,151.47636438491008,2024-08-07 16h36.28.124898 +0800,
sequences/sub0103_percepttesting_sequence_02.csv,90,1,1,3,red,,,,,,,,,,,,,0,2,2,2,0,1,1,1,209.22766079999928,,,,,,,,,,,,,,,,,,,,,,,,,,,,,,,,,,,,,209.22156370000084,209.22766079999928,209.22766079999928,209.4292587,209.58490229999916,3,1,0.35033369999837305,None,209.5857962000009,209.59195700000055,209.6469491000007,209.63927890000014,209.6393492999996,209.6469491000007,210.34160359999987,,,,,,,,,,,sub0103,percept,6,0,2024-08-07_16h35.59.445,ASRT_percept,2023.2.3,151.47636438491008,2024-08-07 16h36.28.124898 +0800,
sequences/sub0103_percepttesting_sequence_02.csv,90,1,1,3,red,,,,,,,,,,,,,0,2,2,2,0,2,2,2,210.3589174000008,,,,,,,,,,,,,,,,,,,,,,,,,,,,,,,,,,,,,210.3432967000008,210.3589174000008,210.3589174000008,210.56115239999963,210.7331938999996,3,1,0.3704981000009866,None,210.73422030000074,210.7397922,210.7901822999993,210.78386370000044,210.78390190000027,210.7901822999993,211.48496610000075,,,,,,,,,,,sub0103,percept,6,0,2024-08-07_16h35.59.445,ASRT_percept,2023.2.3,151.47636438491008,2024-08-07 16h36.28.124898 +0800,
sequences/sub0103_percepttesting_sequence_02.csv,180,2,2,2,red,,,,,,,,,,,,,0,2,2,2,0,3,3,3,211.49137589999918,,,,,,,,,,,,,,,,,,,,,,,,,,,,,,,,,,,,,211.48523750000095,211.49137589999918,211.49137589999918,211.69254039999942,211.8492279000002,2,1,0.3528800999993109,None,211.84971550000046,211.8553952000002,211.9181262000002,211.90698300000076,211.9070431,211.9181262000002,212.6099606000007,,,,,,,,,,,sub0103,percept,6,0,2024-08-07_16h35.59.445,ASRT_percept,2023.2.3,151.47636438491008,2024-08-07 16h36.28.124898 +0800,
sequences/sub0103_percepttesting_sequence_02.csv,180,2,2,2,red,,,,,,,,,,,,,0,2,2,2,0,4,4,4,212.61779639999986,,,,,,,,,,,,,,,,,,,,,,,,,,,,,,,,,,,,,212.61071380000067,212.61779639999986,212.61779639999986,212.81799169999977,212.98896290000084,2,1,0.36707399999977497,None,212.98992829999952,212.9992689999999,213.0465688000004,213.04017170000043,213.04019119999975,213.0465688000004,213.74195280000094,,,,,,,,,,,sub0103,percept,6,0,2024-08-07_16h35.59.445,ASRT_percept,2023.2.3,151.47636438491008,2024-08-07 16h36.28.124898 +0800,
sequences/sub0103_percepttesting_sequence_02.csv,180,2,2,2,white,,,,,,,,,,,,,0,2,2,2,0,5,5,5,213.75161149999985,,,,,,,,,,,,,,,,,,,,,,,,,,,,,,,,,,,,,213.74312219999956,213.75161149999985,213.75161149999985,213.95074209999984,214.74176909999915,None,0,,,214.74233839999943,214.74857809999958,214.8050585000001,214.79895639999995,214.79901280000013,214.8050585000001,215.4983271000001,215.5066311999999,,,,,,,,,,sub0103,percept,6,0,2024-08-07_16h35.59.445,ASRT_percept,2023.2.3,151.47636438491008,2024-08-07 16h36.28.124898 +0800,
sequences/sub0103_percepttesting_sequence_02.csv,90,1,1,3,red,,,,,,,,,,,,,0,2,2,2,0,6,6,6,215.5066311999999,,,,,,,,,,,,,,,,,,,,,,,,,,,,,,,,,,,,,215.49858700000004,215.5066311999999,215.5066311999999,215.70679759999985,215.87480460000006,3,1,0.366667200001757,None,215.87514369999917,215.87959520000004,215.93535200000042,215.92905950000022,215.9290758999996,215.93535200000042,216.63090550000015,,,,,,,,,,,sub0103,percept,6,0,2024-08-07_16h35.59.445,ASRT_percept,2023.2.3,151.47636438491008,2024-08-07 16h36.28.124898 +0800,
sequences/sub0103_percepttesting_sequence_02.csv,90,1,1,3,white,,,,,,,,,,,,,0,2,2,2,0,7,7,7,216.63739969999915,,,,,,,,,,,,,,,,,,,,,,,,,,,,,,,,,,,,,216.63179760000094,216.63739969999915,216.63739969999915,216.83803099999932,216.97900819999995,3,1,0.3332439000005252,None,216.9792809999999,216.9840746000009,217.04017960000056,217.0343771000007,217.03441679999924,217.04017960000056,217.73465810000016,,,,,,,,,,,sub0103,percept,6,0,2024-08-07_16h35.59.445,ASRT_percept,2023.2.3,151.47636438491008,2024-08-07 16h36.28.124898 +0800,
sequences/sub0103_percepttesting_sequence_02.csv,0,0,0,4,red,,,,,,,,,,,,,0,2,2,2,0,8,8,8,217.7415130999998,,,,,,,,,,,,,,,,,,,,,,,,,,,,,,,,,,,,,217.73523620000014,217.7415130999998,217.7415130999998,217.94541109999955,218.73482879999938,None,0,,,218.73519880000094,218.7409831999994,218.79643270000088,218.7909436000009,218.7909639999998,218.79643270000088,219.49157729999934,,,,,,,,,,218.7409831999994,sub0103,percept,6,0,2024-08-07_16h35.59.445,ASRT_percept,2023.2.3,151.47636438491008,2024-08-07 16h36.28.124898 +0800,
sequences/sub0103_percepttesting_sequence_02.csv,0,0,0,4,white,,,,,,,,,,,,,0,2,2,2,0,9,9,9,219.49805220000053,,,,,,,,,,,,,,,,,,,,,,,,,,,,,,,,,,,,,219.4921632000005,219.49805220000053,219.49805220000053,219.69958199999928,219.8672659999993,4,1,0.3642115999991802,None,219.86765039999955,219.8727429999999,219.9283505000003,219.92184160000033,219.92185620000055,219.9283505000003,220.62350510000033,,,,,,,,,,,sub0103,percept,6,0,2024-08-07_16h35.59.445,ASRT_percept,2023.2.3,151.47636438491008,2024-08-07 16h36.28.124898 +0800,
