initial_random_seq_files,orientation_index,orientation_degrees,correct_answer_index,correct_answer_direction,arrow_color,practice_seq_files,learning_seq_files,percept_testing_seq_files,init_random_block.thisRepN,init_random_block.thisTrialN,init_random_block.thisN,init_random_block.thisIndex,init_random_trials.thisRepN,init_random_trials.thisTrialN,init_random_trials.thisN,init_random_trials.thisIndex,practice_blocks.thisRepN,practice_blocks.thisTrialN,practice_blocks.thisN,practice_blocks.thisIndex,practice_trials.thisRepN,practice_trials.thisTrialN,practice_trials.thisN,practice_trials.thisIndex,learning_trials.thisRepN,learning_trials.thisTrialN,learning_trials.thisN,learning_trials.thisIndex,learning_loop.thisRepN,learning_loop.thisTrialN,learning_loop.thisN,learning_loop.thisIndex,trials.thisRepN,trials.thisTrialN,trials.thisN,trials.thisIndex,percept_testing_trials.thisRepN,percept_testing_trials.thisTrialN,percept_testing_trials.thisN,percept_testing_trials.thisIndex,percept_testing_loop.thisRepN,percept_testing_loop.thisTrialN,percept_testing_loop.thisN,percept_testing_loop.thisIndex,thisRow.t,notes,welcomescreen.started,spaceship.started,welcometext.started,welcome_end.started,welcomescreen.stopped,welcome_end.keys,welcome_end.rt,welcome_end.duration,pre_section.started,fixation_init.started,pre_section.stopped,trial.started,arrowhead.started,key_resp.started,arrowhead.stopped,trial.stopped,key_resp.keys,key_resp.corr,key_resp.rt,key_resp.duration,fixation_feedback.started,cross.started,feedback_text.started,cross.stopped,feedback_text.stopped,fixation_feedback.stopped,RSI.started,text_2.started,RSI.stopped,text_2.stopped,post_section.started,feedback_post_section.started,key_resp_4.started,feedback_post_section.stopped,post_section.stopped,key_resp_4.keys,key_resp_4.rt,key_resp_4.duration,pratice_instruction.started,spaceship_rotated.started,rotation_instruction.started,key_resp_2.started,pratice_instruction.stopped,key_resp_2.keys,key_resp_2.rt,key_resp_2.duration,fixation_init.stopped,learning_instruction.started,spaceship_rotated01.started,rotation_instruction01.started,key_resp_02.started,learning_instruction.stopped,key_resp_02.keys,key_resp_02.rt,key_resp_02.duration,seqreport_instruction.started,seqreport_instruction_text.started,seqreport_instruction_key.started,seqreport_instruction.stopped,seqreport_instruction_key.keys,seqreport_instruction_key.rt,seqreport_instruction_key.duration,seqreport.started,seq_report_key.started,seqreport.stopped,seq_report_key.keys,seq_report_key.rt,seq_report_key.duration,seqarrow.started,arrow_report.started,seqarrow.stopped,arrow_report.stopped,percept_testing_instruction.started,spaceship4.started,key_resp_5.started,percept_testing_instruction_text.started,percept_testing_instruction.stopped,key_resp_5.keys,key_resp_5.rt,key_resp_5.duration,fixation.started,cross_2.started,cross_2.stopped,fixation.stopped,participant,learning_type,seqID,debug,date,expName,psychopyVersion,frameRate,expStart,
,,,,,,,,,,,,,,,,,,,,,,,,,,,,,,,,,,,,,,,,,,,,,,,0.01016799999979412,0.018740699999398203,0.018740699999398203,0.018740699999398203,4.948211899999478,space,4.9258294000001115,None,,,,,,,,,,,,,,,,,,,,,,,,,,,,,,,,,,,,,,,,,,,,,,,,,,,,,,,,,,,,,,,,,,,,,,,,,,,,,sub103,percept,6,0,2024-08-07_15h04.46.095,ASRT_percept,2023.2.3,141.15601126901132,2024-08-07 15h05.17.327586 +0800,
sequences/sub103_initial_random.csv,3,270,3,1,red,,,,0,0,0,0,0,0,0,0,,,,,,,,,,,,,,,,,,,,,,,,,,,,,5.986464399999932,,,,,,,,,,4.966350099999545,4.96903039999961,5.957353599999806,5.981863899999553,5.986464399999932,5.986464399999932,6.1906756999997015,6.53401329999997,1,1,0.5448063000003458,None,6.535276199999316,6.544289999999819,6.544289999999819,6.74589289999949,6.953841399999874,6.948539699999856,6.9485822999995435,6.953841399999874,7.648889799999779,,,,,,,,,,,,,,,,,,,,,,,,,,,,,,,,,,,,,,,,,,,,,,,,,,,,,,,,sub103,percept,6,0,2024-08-07_15h04.46.095,ASRT_percept,2023.2.3,141.15601126901132,2024-08-07 15h05.17.327586 +0800,
sequences/sub103_initial_random.csv,0,0,0,4,red,,,,0,0,0,0,0,1,1,1,,,,,,,,,,,,,,,,,,,,,,,,,,,,,7.656807999999728,,,,,,,,,,,,,7.649487399999998,7.656807999999728,7.656807999999728,7.8570019999997385,8.10232939999969,4,1,0.4395780000004379,None,8.10303169999952,8.108919199999946,8.108919199999946,8.31515859999945,8.523856899999373,8.518294999999853,8.518337900000006,8.523856899999373,9.218574699999408,,,,,,,,,,,,,,,,,,,,,,,,,,,,,,,,,,,,,,,,,,,,,,,,,,,,,,,,sub103,percept,6,0,2024-08-07_15h04.46.095,ASRT_percept,2023.2.3,141.15601126901132,2024-08-07 15h05.17.327586 +0800,
sequences/sub103_initial_random.csv,3,270,3,1,red,,,,0,0,0,0,0,2,2,2,,,,,,,,,,,,,,,,,,,,,,,,,,,,,9.22495809999964,,,,,,,,,,,,,9.219283899999937,9.22495809999964,9.22495809999964,9.426781799999844,9.629848599999605,1,1,0.3998717000004035,None,9.630621100000099,9.636381499999516,9.636381499999516,9.843075799999497,10.052038299999367,10.04618819999996,10.046240900000157,10.052038299999367,10.746569699999782,,,,,,,,,,,,,,,,,,,,,,,,,,,,,,,,,,,,,,,,,,,,,,,,,,,,,,,,sub103,percept,6,0,2024-08-07_15h04.46.095,ASRT_percept,2023.2.3,141.15601126901132,2024-08-07 15h05.17.327586 +0800,
sequences/sub103_initial_random.csv,3,270,3,1,red,,,,0,0,0,0,0,3,3,3,,,,,,,,,,,,,,,,,,,,,,,,,,,,,10.754039699999339,,,,,,,,,,,,,10.747269200000119,10.754039699999339,10.754039699999339,10.954085599999416,11.11768359999951,1,1,0.3605398999998215,None,11.118447099999685,11.123996199999965,11.123996199999965,11.329184999999597,11.537026999999398,11.5319415999993,11.531987800000024,11.537026999999398,12.233444699999382,,,,,,,,,,,,,,,,,,,,,,,,,,,,,,,,,,,,,,,,,,,,,,,,,,,,,,,,sub103,percept,6,0,2024-08-07_15h04.46.095,ASRT_percept,2023.2.3,141.15601126901132,2024-08-07 15h05.17.327586 +0800,
sequences/sub103_initial_random.csv,1,90,1,3,red,,,,0,0,0,0,0,4,4,4,,,,,,,,,,,,,,,,,,,,,,,,,,,,,12.242370199999641,,,,,,,,,,,,,12.23415389999991,12.242370199999641,12.242370199999641,12.447184300000117,12.564138799999455,4,0,0.3161333999996714,None,12.565019499999835,12.583874399999331,12.583874399999331,12.780377399999452,12.993977799999811,12.985501600000134,12.985559899999316,12.993977799999811,13.690535400000044,,,,,,,,,,,,,,,,,,,,,,,,,,,,,,,,,,,,,,,,,,,,,,,,,,,,,,,,sub103,percept,6,0,2024-08-07_15h04.46.095,ASRT_percept,2023.2.3,141.15601126901132,2024-08-07 15h05.17.327586 +0800,
sequences/sub103_initial_random.csv,3,270,3,1,red,,,,0,0,0,0,0,5,5,5,,,,,,,,,,,,,,,,,,,,,,,,,,,,,13.698207999999795,,,,,,,,,,,,,13.691140199999609,13.698207999999795,13.698207999999795,13.898660500000005,14.025845499999377,1,1,0.3220271000000139,None,14.026477800000066,14.035057000000052,14.035057000000052,14.23862569999983,14.447069799999554,14.441375499999594,14.44141909999962,14.447069799999554,15.141759699999966,,,,,,,,,,,,,,,,,,,,,,,,,,,,,,,,,,,,,,,,,,,,,,,,,,,,,,,,sub103,percept,6,0,2024-08-07_15h04.46.095,ASRT_percept,2023.2.3,141.15601126901132,2024-08-07 15h05.17.327586 +0800,
sequences/sub103_initial_random.csv,2,180,2,2,red,,,,0,0,0,0,0,6,6,6,,,,,,,,,,,,,,,,,,,,,,,,,,,,,15.14899609999975,,,,,,,,,,,,,15.142358299999614,15.14899609999975,15.14899609999975,15.350095499999952,15.505180199999813,2,1,0.3516300000001138,None,15.506081999999878,15.51222719999987,15.51222719999987,15.717804599999909,15.926159199999347,15.920779899999616,15.920823699999346,15.926159199999347,16.62094590000015,,,,,,,,,,,,,,,,,,,,,,,,,,,,,,,,,,,,,,,,,,,,,,,,,,,,,,,,sub103,percept,6,0,2024-08-07_15h04.46.095,ASRT_percept,2023.2.3,141.15601126901132,2024-08-07 15h05.17.327586 +0800,
sequences/sub103_initial_random.csv,2,180,2,2,red,,,,0,0,0,0,0,7,7,7,,,,,,,,,,,,,,,,,,,,,,,,,,,,,16.6276969999999,,,,,,,,,,,,,16.621557499999653,16.6276969999999,16.6276969999999,16.829040599999644,17.11010989999977,2,1,0.4784111999997549,None,17.11088169999948,17.118930300000102,17.118930300000102,17.321977099999458,17.530922399999326,17.52485969999998,17.524910899999668,17.530922399999326,18.225851299999704,18.23183379999955,,,,,,,,,,,,,,,,,,,,,,,,,,,,,,,,,,,,,,,,,,,,,,,,,,,,,,,sub103,percept,6,0,2024-08-07_15h04.46.095,ASRT_percept,2023.2.3,141.15601126901132,2024-08-07 15h05.17.327586 +0800,
sequences/sub103_initial_random.csv,2,180,2,2,red,,,,0,0,0,0,0,8,8,8,,,,,,,,,,,,,,,,,,,,,,,,,,,,,18.23183379999955,,,,,,,,,,,,,18.22644609999952,18.23183379999955,18.23183379999955,18.433108100000027,18.630243699999482,2,1,0.3908774000001358,None,18.631025599999703,18.63930149999942,18.63930149999942,18.84277039999961,19.05100709999988,19.045248399999764,19.045290799999748,19.05100709999988,19.74590139999964,,,,,,,,,,,,,,,,,,,,,,,,,,,,,,,,,,,,,,,,,,,,,,,,,,,,,,,,sub103,percept,6,0,2024-08-07_15h04.46.095,ASRT_percept,2023.2.3,141.15601126901132,2024-08-07 15h05.17.327586 +0800,
sequences/sub103_initial_random.csv,0,0,0,4,red,,,,0,0,0,0,0,9,9,9,,,,,,,,,,,,,,,,,,,,,,,,,,,,,19.753684399999656,,,,,,,,,,,,,19.74666619999971,19.753684399999656,19.753684399999656,19.95398329999989,20.145444899999347,4,1,0.3827653999996983,None,20.14614410000013,20.152244699999756,20.152244699999756,20.356233800000155,20.56485689999954,20.55927840000004,20.559320499999558,20.56485689999954,21.259892899999613,,,,,,,,,,,,,,,,,,,,,,,,,,,,,,,,,,,,,,,,,,,,,,,,,,,,,,,,sub103,percept,6,0,2024-08-07_15h04.46.095,ASRT_percept,2023.2.3,141.15601126901132,2024-08-07 15h05.17.327586 +0800,
sequences/sub103_initial_random.csv,0,0,0,4,red,,,,0,0,0,0,0,10,10,10,,,,,,,,,,,,,,,,,,,,,,,,,,,,,21.26819230000001,,,,,,,,,,,,,21.260757299999568,21.26819230000001,21.26819230000001,21.46774649999952,21.66466379999929,4,1,0.38902800000050775,None,21.6653624999999,21.673139999999876,21.673139999999876,21.877536599999985,22.085906599999362,22.079708299999766,22.07975129999977,22.085906599999362,22.780723599999874,,,,,,,,,,,,,,,,,,,,,,,,,,,,,,,,,,,,,,,,,,,,,,,,,,,,,,,,sub103,percept,6,0,2024-08-07_15h04.46.095,ASRT_percept,2023.2.3,141.15601126901132,2024-08-07 15h05.17.327586 +0800,
sequences/sub103_initial_random.csv,0,0,0,4,red,,,,0,0,0,0,0,11,11,11,,,,,,,,,,,,,,,,,,,,,,,,,,,,,22.787107600000127,,,,,,,,,,,,,22.781493800000135,22.787107600000127,22.787107600000127,22.988552899999377,23.199703499999487,4,1,0.40781909999986965,None,23.20045399999981,23.20648279999932,23.20648279999932,23.412236899999698,23.62037169999985,23.61463509999976,23.61467829999947,23.62037169999985,24.31567509999968,,,,,,,,,,,,,,,,,,,,,,,,,,,,,,,,,,,,,,,,,,,,,,,,,,,,,,,,sub103,percept,6,0,2024-08-07_15h04.46.095,ASRT_percept,2023.2.3,141.15601126901132,2024-08-07 15h05.17.327586 +0800,
sequences/sub103_initial_random.csv,0,0,0,4,red,,,,0,0,0,0,0,12,12,12,,,,,,,,,,,,,,,,,,,,,,,,,,,,,24.32236130000001,,,,,,,,,,,,,24.31643879999956,24.32236130000001,24.32236130000001,24.52375479999955,24.72840819999965,4,1,0.402865600000041,None,24.729121999999734,24.736175499999263,24.736175499999263,24.94006569999965,25.148229999999785,25.143114999999852,25.143166899999414,25.148229999999785,25.84409719999985,25.855015099999946,,,,,,,,,,,,,,,,,,,,,,,,,,,,,,,,,,,,,,,,,,,,,,,,,,,,,,,sub103,percept,6,0,2024-08-07_15h04.46.095,ASRT_percept,2023.2.3,141.15601126901132,2024-08-07 15h05.17.327586 +0800,
sequences/sub103_initial_random.csv,2,180,2,2,red,,,,0,0,0,0,0,13,13,13,,,,,,,,,,,,,,,,,,,,,,,,,,,,,25.855015099999946,,,,,,,,,,,,,25.84481549999964,25.855015099999946,25.855015099999946,26.05828389999988,26.2057221999994,2,1,0.3455641000000469,None,26.206301399999575,26.211319000000003,26.211319000000003,26.418945699999313,26.62743539999974,26.621908000000076,26.621951099999933,26.62743539999974,27.322095999999874,,,,,,,,,,,,,,,,,,,,,,,,,,,,,,,,,,,,,,,,,,,,,,,,,,,,,,,,sub103,percept,6,0,2024-08-07_15h04.46.095,ASRT_percept,2023.2.3,141.15601126901132,2024-08-07 15h05.17.327586 +0800,
sequences/sub103_initial_random.csv,0,0,0,4,red,,,,0,0,0,0,0,14,14,14,,,,,,,,,,,,,,,,,,,,,,,,,,,,,27.329173799999808,,,,,,,,,,,,,27.32281349999994,27.329173799999808,27.329173799999808,27.53050859999985,27.68002869999964,4,1,0.3480381999997917,None,27.680849800000033,27.686591199999384,27.686591199999384,27.89152860000013,28.100809099999424,28.094437599999765,28.094495199999983,28.100809099999424,28.794683399999485,,,,,,,,,,,,,,,,,,,,,,,,,,,,,,,,,,,,,,,,,,,,,,,,,,,,,,,,sub103,percept,6,0,2024-08-07_15h04.46.095,ASRT_percept,2023.2.3,141.15601126901132,2024-08-07 15h05.17.327586 +0800,
sequences/sub103_initial_random.csv,1,90,1,3,red,,,,0,0,0,0,0,15,15,15,,,,,,,,,,,,,,,,,,,,,,,,,,,,,28.801997199999278,,,,,,,,,,,,,28.795431099999405,28.801997199999278,28.801997199999278,29.002932499999588,29.1515645999998,3,1,0.3464334999998755,None,29.152286199999253,29.158446299999923,29.158446299999923,29.363569799999823,29.572400600000037,29.56595279999965,29.56599449999976,29.572400600000037,30.266644799999995,,,,,,,,,,,,,,,,,,,,,,,,,,,,,,,,,,,,,,,,,,,,,,,,,,,,,,,,sub103,percept,6,0,2024-08-07_15h04.46.095,ASRT_percept,2023.2.3,141.15601126901132,2024-08-07 15h05.17.327586 +0800,
sequences/sub103_initial_random.csv,2,180,2,2,red,,,,0,0,0,0,0,16,16,16,,,,,,,,,,,,,,,,,,,,,,,,,,,,,30.273863999999776,,,,,,,,,,,,,30.26738149999983,30.273863999999776,30.273863999999776,30.474744799999826,30.733943700000054,2,1,0.4533676999999443,None,30.73464679999961,30.740855099999862,30.740855099999862,30.94658410000011,31.15494679999938,31.149734999999964,31.149777900000117,31.15494679999938,31.8501097999997,,,,,,,,,,,,,,,,,,,,,,,,,,,,,,,,,,,,,,,,,,,,,,,,,,,,,,,,sub103,percept,6,0,2024-08-07_15h04.46.095,ASRT_percept,2023.2.3,141.15601126901132,2024-08-07 15h05.17.327586 +0800,
sequences/sub103_initial_random.csv,3,270,3,1,red,,,,0,0,0,0,0,17,17,17,,,,,,,,,,,,,,,,,,,,,,,,,,,,,31.85722219999934,,,,,,,,,,,,,31.850828799999363,31.85722219999934,31.85722219999934,32.057905099999516,32.24441669999942,1,1,0.3772553999997399,None,32.24520810000013,32.25334389999989,32.25334389999989,32.45348979999926,32.661773199999516,32.65588249999928,32.65592219999962,32.661773199999516,33.35678639999969,,,,,,,,,,,,,,,,,,,,,,,,,,,,,,,,,,,,,,,,,,,,,,,,,,,,,,,,sub103,percept,6,0,2024-08-07_15h04.46.095,ASRT_percept,2023.2.3,141.15601126901132,2024-08-07 15h05.17.327586 +0800,
sequences/sub103_initial_random.csv,1,90,1,3,red,,,,0,0,0,0,0,18,18,18,,,,,,,,,,,,,,,,,,,,,,,,,,,,,33.364410000000134,,,,,,,,,,,,,33.35744319999958,33.364410000000134,33.364410000000134,33.56515209999998,33.7824800999997,3,1,0.4099234000004799,None,33.783139299999675,33.78928480000013,33.78928480000013,33.99555069999951,34.204572099999496,34.19878569999946,34.19883779999964,34.204572099999496,34.900521199999275,34.90959509999993,,,,,,,,,,,,,,,,,,,,,,,,,,,,,,,,,,,,,,,,,,,,,,,,,,,,,,,sub103,percept,6,0,2024-08-07_15h04.46.095,ASRT_percept,2023.2.3,141.15601126901132,2024-08-07 15h05.17.327586 +0800,
sequences/sub103_initial_random.csv,0,0,0,4,red,,,,0,0,0,0,0,19,19,19,,,,,,,,,,,,,,,,,,,,,,,,,,,,,34.90959509999993,,,,,,,,,,,,,34.9015816000001,34.90959509999993,34.90959509999993,35.11357409999982,35.247581999999966,4,1,0.33092990000022837,None,35.248265499999434,35.254622699999345,35.254622699999345,35.46117210000011,35.67204519999996,35.666019100000085,35.66606619999948,35.67204519999996,36.37074279999979,,,,,,,,,,,,,,,,,,,,,,,,,,,,,,,,,,,,,,,,,,,,,,,,,,,,,,,,sub103,percept,6,0,2024-08-07_15h04.46.095,ASRT_percept,2023.2.3,141.15601126901132,2024-08-07 15h05.17.327586 +0800,
sequences/sub103_initial_random.csv,2,180,2,2,red,,,,0,0,0,0,0,20,20,20,,,,,,,,,,,,,,,,,,,,,,,,,,,,,36.37675029999991,,,,,,,,,,,,,36.37152939999942,36.37675029999991,36.37675029999991,36.57858390000001,36.69191890000002,2,1,0.31123479999951087,None,36.692631199999596,36.69917649999934,36.69917649999934,36.904752099999314,37.1130863999997,37.106710799999746,37.10674190000009,37.1130863999997,37.808444499999496,,,,,,,,,,,,,,,,,,,,,,,,,,,,,,,,,,,,,,,,,,,,,,,,,,,,,,,,sub103,percept,6,0,2024-08-07_15h04.46.095,ASRT_percept,2023.2.3,141.15601126901132,2024-08-07 15h05.17.327586 +0800,
sequences/sub103_initial_random.csv,3,270,3,1,red,,,,0,0,0,0,0,21,21,21,,,,,,,,,,,,,,,,,,,,,,,,,,,,,37.81563819999974,,,,,,,,,,,,,37.8095330999995,37.81563819999974,37.81563819999974,38.01642869999978,38.16402569999991,1,1,0.34374040000056993,None,38.164609099999325,38.17083129999992,38.17083129999992,38.37721090000014,38.585804800000005,38.58032439999988,38.58038239999951,38.585804800000005,39.281684499999756,39.28920709999966,,,,,,,,,,,,,,,,,,,,,,,,,,,,,,,,,,,,,,,,,,,,,,,,,,,,,,,sub103,percept,6,0,2024-08-07_15h04.46.095,ASRT_percept,2023.2.3,141.15601126901132,2024-08-07 15h05.17.327586 +0800,
sequences/sub103_initial_random.csv,0,0,0,4,red,,,,0,0,0,0,0,22,22,22,,,,,,,,,,,,,,,,,,,,,,,,,,,,,39.28920709999966,,,,,,,,,,,,,39.28237809999973,39.28920709999966,39.28920709999966,39.495969599999626,39.63601709999966,4,1,0.3396400999999969,None,39.63674179999998,39.642519099999845,39.642519099999845,39.84934229999999,40.058129399999416,40.0521104999998,40.05215589999989,40.058129399999416,40.752887999999984,,,,,,,,,,,,,,,,,,,,,,,,,,,,,,,,,,,,,,,,,,,,,,,,,,,,,,,,sub103,percept,6,0,2024-08-07_15h04.46.095,ASRT_percept,2023.2.3,141.15601126901132,2024-08-07 15h05.17.327586 +0800,
sequences/sub103_initial_random.csv,1,90,1,3,red,,,,0,0,0,0,0,23,23,23,,,,,,,,,,,,,,,,,,,,,,,,,,,,,40.761044999999285,,,,,,,,,,,,,40.75370159999966,40.761044999999285,40.761044999999285,40.96027729999969,41.108940000000075,3,1,0.3422729000003528,None,41.10962709999967,41.11758120000013,41.11758120000013,41.32156579999992,41.529681199999686,41.52403709999999,41.52407979999953,41.529681199999686,42.22415589999946,,,,,,,,,,,,,,,,,,,,,,,,,,,,,,,,,,,,,,,,,,,,,,,,,,,,,,,,sub103,percept,6,0,2024-08-07_15h04.46.095,ASRT_percept,2023.2.3,141.15601126901132,2024-08-07 15h05.17.327586 +0800,
sequences/sub103_initial_random.csv,1,90,1,3,red,,,,0,0,0,0,0,24,24,24,,,,,,,,,,,,,,,,,,,,,,,,,,,,,42.23075770000014,,,,,,,,,,,,,42.22472359999938,42.23075770000014,42.23075770000014,42.433025199999975,42.617711699999745,3,1,0.382039099999929,None,42.618549099999655,42.62461540000004,42.62461540000004,42.82861219999995,43.03665739999997,43.03126109999994,43.03147689999969,43.03665739999997,43.731938199999604,43.737567999999555,,,,,,,,,,,,,,,,,,,,,,,,,,,,,,,,,,,,,,,,,,,,,,,,,,,,,,,sub103,percept,6,0,2024-08-07_15h04.46.095,ASRT_percept,2023.2.3,141.15601126901132,2024-08-07 15h05.17.327586 +0800,
sequences/sub103_initial_random.csv,3,270,3,1,red,,,,0,0,0,0,0,25,25,25,,,,,,,,,,,,,,,,,,,,,,,,,,,,,43.737567999999555,,,,,,,,,,,,,43.7325393000001,43.737567999999555,43.737567999999555,43.93941610000002,44.17112249999991,1,1,0.4288212999999814,None,44.17197339999984,44.1770448999996,44.1770448999996,44.38414169999942,44.59204929999942,44.58652709999933,44.58657349999976,44.59204929999942,45.28685739999946,,,,,,,,,,,,,,,,,,,,,,,,,,,,,,,,,,,,,,,,,,,,,,,,,,,,,,,,sub103,percept,6,0,2024-08-07_15h04.46.095,ASRT_percept,2023.2.3,141.15601126901132,2024-08-07 15h05.17.327586 +0800,
sequences/sub103_initial_random.csv,2,180,2,2,red,,,,0,0,0,0,0,26,26,26,,,,,,,,,,,,,,,,,,,,,,,,,,,,,45.29325749999953,,,,,,,,,,,,,45.28744299999926,45.29325749999953,45.29325749999953,45.49526639999931,45.80236650000006,2,1,0.5057169000001522,None,45.802954599999794,45.80976509999982,45.80976509999982,46.01599119999992,46.22465889999967,46.21892979999939,46.21898229999988,46.22465889999967,46.919359799999256,,,,,,,,,,,,,,,,,,,,,,,,,,,,,,,,,,,,,,,,,,,,,,,,,,,,,,,,sub103,percept,6,0,2024-08-07_15h04.46.095,ASRT_percept,2023.2.3,141.15601126901132,2024-08-07 15h05.17.327586 +0800,
sequences/sub103_initial_random.csv,2,180,2,2,red,,,,0,0,0,0,0,27,27,27,,,,,,,,,,,,,,,,,,,,,,,,,,,,,46.930456799999774,,,,,,,,,,,,,46.92017189999933,46.930456799999774,46.930456799999774,47.13380419999976,47.35942470000009,2,1,0.4252369000005274,None,47.36032089999935,47.3714102999993,47.3714102999993,47.5713582999997,47.77953669999988,47.7737062999995,47.773748099999466,47.77953669999988,48.474235199999384,,,,,,,,,,,,,,,,,,,,,,,,,,,,,,,,,,,,,,,,,,,,,,,,,,,,,,,,sub103,percept,6,0,2024-08-07_15h04.46.095,ASRT_percept,2023.2.3,141.15601126901132,2024-08-07 15h05.17.327586 +0800,
sequences/sub103_initial_random.csv,2,180,2,2,red,,,,0,0,0,0,0,28,28,28,,,,,,,,,,,,,,,,,,,,,,,,,,,,,48.482348900000034,,,,,,,,,,,,,48.47506319999957,48.482348900000034,48.482348900000034,48.682378499999686,48.81682120000005,2,1,0.32607670000015787,None,48.8174427999993,48.82275309999932,48.82275309999932,49.02949279999939,49.23856009999963,49.232776799999556,49.232828100000006,49.23856009999963,49.93274070000007,49.93896589999986,,,,,,,,,,,,,,,,,,,,,,,,,,,,,,,,,,,,,,,,,,,,,,,,,,,,,,,sub103,percept,6,0,2024-08-07_15h04.46.095,ASRT_percept,2023.2.3,141.15601126901132,2024-08-07 15h05.17.327586 +0800,
sequences/sub103_initial_random.csv,2,180,2,2,red,,,,0,0,0,0,0,29,29,29,,,,,,,,,,,,,,,,,,,,,,,,,,,,,49.93896589999986,,,,,,,,,,,,,49.93322569999964,49.93896589999986,49.93896589999986,50.14064109999981,50.3995903999994,2,1,0.4558742999997776,None,50.40027149999969,50.40561009999965,50.40561009999965,50.613177399999586,50.821295499999906,50.81595549999929,50.816002199999275,50.821295499999906,51.51667749999979,,,,,,,,,,,,,,,,,,,,,,,,,,,,,,,,,,,,,,,,,,,,,,,,,,,,,,,,sub103,percept,6,0,2024-08-07_15h04.46.095,ASRT_percept,2023.2.3,141.15601126901132,2024-08-07 15h05.17.327586 +0800,
sequences/sub103_initial_random.csv,1,90,1,3,red,,,,0,0,0,0,0,30,30,30,,,,,,,,,,,,,,,,,,,,,,,,,,,,,51.52700359999926,,,,,,,,,,,,,51.51766589999988,51.52700359999926,51.52700359999926,51.73135889999958,51.86643980000008,3,1,0.336351700000705,None,51.86714729999949,51.8732188999993,51.8732188999993,52.078387999999904,52.28656659999979,52.28088949999983,52.28093170000011,52.28656659999979,52.98178039999948,52.98792609999964,,,,,,,,,,,,,,,,,,,,,,,,,,,,,,,,,,,,,,,,,,,,,,,,,,,,,,,sub103,percept,6,0,2024-08-07_15h04.46.095,ASRT_percept,2023.2.3,141.15601126901132,2024-08-07 15h05.17.327586 +0800,
sequences/sub103_initial_random.csv,2,180,2,2,red,,,,0,0,0,0,0,31,31,31,,,,,,,,,,,,,,,,,,,,,,,,,,,,,52.98792609999964,,,,,,,,,,,,,52.98252919999959,52.98792609999964,52.98792609999964,53.18913309999971,53.42046779999964,2,1,0.4248900999991747,None,53.42103129999941,53.427298900000096,53.427298900000096,53.63386069999979,53.84174389999953,53.83617419999973,53.8362161999994,53.84174389999953,54.540310299999874,,,,,,,,,,,,,,,,,,,,,,,,,,,,,,,,,,,,,,,,,,,,,,,,,,,,,,,,sub103,percept,6,0,2024-08-07_15h04.46.095,ASRT_percept,2023.2.3,141.15601126901132,2024-08-07 15h05.17.327586 +0800,
sequences/sub103_initial_random.csv,3,270,3,1,red,,,,0,0,0,0,0,32,32,32,,,,,,,,,,,,,,,,,,,,,,,,,,,,,54.5495148,,,,,,,,,,,,,54.54125609999937,54.5495148,54.5495148,54.75197939999998,54.913894999999684,1,1,0.3601178999997501,None,54.914615499999854,54.921237099999416,54.921237099999416,55.12726139999995,55.33580559999973,55.32985339999959,55.32991319999928,55.33580559999973,56.03014619999976,56.03626219999933,,,,,,,,,,,,,,,,,,,,,,,,,,,,,,,,,,,,,,,,,,,,,,,,,,,,,,,sub103,percept,6,0,2024-08-07_15h04.46.095,ASRT_percept,2023.2.3,141.15601126901132,2024-08-07 15h05.17.327586 +0800,
sequences/sub103_initial_random.csv,2,180,2,2,red,,,,0,0,0,0,0,33,33,33,,,,,,,,,,,,,,,,,,,,,,,,,,,,,56.03626219999933,,,,,,,,,,,,,56.03064379999978,56.03626219999933,56.03626219999933,56.23804689999997,56.41428929999984,2,1,0.3738085000004503,None,56.41506299999946,56.42180929999995,56.42180929999995,56.62688849999995,56.83537069999966,56.829714099999364,56.82976559999952,56.83537069999966,57.530100399999355,57.53604689999975,,,,,,,,,,,,,,,,,,,,,,,,,,,,,,,,,,,,,,,,,,,,,,,,,,,,,,,sub103,percept,6,0,2024-08-07_15h04.46.095,ASRT_percept,2023.2.3,141.15601126901132,2024-08-07 15h05.17.327586 +0800,
sequences/sub103_initial_random.csv,1,90,1,3,red,,,,0,0,0,0,0,34,34,34,,,,,,,,,,,,,,,,,,,,,,,,,,,,,57.53604689999975,,,,,,,,,,,,,57.53055619999941,57.53604689999975,57.53604689999975,57.737905599999976,57.85840419999931,3,1,0.3187514999999621,None,57.8591179999994,57.86348799999996,57.86348799999996,58.07087339999998,58.27964299999985,58.27375099999972,58.27379789999941,58.27964299999985,58.974251799999365,,,,,,,,,,,,,,,,,,,,,,,,,,,,,,,,,,,,,,,,,,,,,,,,,,,,,,,,sub103,percept,6,0,2024-08-07_15h04.46.095,ASRT_percept,2023.2.3,141.15601126901132,2024-08-07 15h05.17.327586 +0800,
sequences/sub103_initial_random.csv,0,0,0,4,red,,,,0,0,0,0,0,35,35,35,,,,,,,,,,,,,,,,,,,,,,,,,,,,,58.98231179999948,,,,,,,,,,,,,58.97515629999998,58.98231179999948,58.98231179999948,59.182569099999455,59.407717899999625,4,1,0.42167239999980666,None,59.408507199999804,59.41870699999981,59.41870699999981,59.61992999999984,59.82833769999979,59.82232260000001,59.822363599999335,59.82833769999979,60.52298579999933,,,,,,,,,,,,,,,,,,,,,,,,,,,,,,,,,,,,,,,,,,,,,,,,,,,,,,,,sub103,percept,6,0,2024-08-07_15h04.46.095,ASRT_percept,2023.2.3,141.15601126901132,2024-08-07 15h05.17.327586 +0800,
sequences/sub103_initial_random.csv,2,180,2,2,red,,,,0,0,0,0,0,36,36,36,,,,,,,,,,,,,,,,,,,,,,,,,,,,,60.52947080000013,,,,,,,,,,,,,60.523641699999644,60.52947080000013,60.52947080000013,60.7311353999994,60.86477119999927,2,1,0.3303550999999061,None,60.86552099999972,60.872155699999894,60.872155699999894,61.07801329999984,61.286266899999646,61.28075079999962,61.280797899999925,61.286266899999646,61.981093299999884,,,,,,,,,,,,,,,,,,,,,,,,,,,,,,,,,,,,,,,,,,,,,,,,,,,,,,,,sub103,percept,6,0,2024-08-07_15h04.46.095,ASRT_percept,2023.2.3,141.15601126901132,2024-08-07 15h05.17.327586 +0800,
sequences/sub103_initial_random.csv,0,0,0,4,red,,,,0,0,0,0,0,37,37,37,,,,,,,,,,,,,,,,,,,,,,,,,,,,,61.98879249999936,,,,,,,,,,,,,61.98179789999995,61.98879249999936,61.98879249999936,62.18896219999988,62.38895009999942,4,1,0.3899860000001354,None,62.38959749999958,62.39567879999959,62.39567879999959,62.5987226999996,62.807041899999604,62.800936399999955,62.80097419999947,62.807041899999604,63.501760499999364,,,,,,,,,,,,,,,,,,,,,,,,,,,,,,,,,,,,,,,,,,,,,,,,,,,,,,,,sub103,percept,6,0,2024-08-07_15h04.46.095,ASRT_percept,2023.2.3,141.15601126901132,2024-08-07 15h05.17.327586 +0800,
sequences/sub103_initial_random.csv,1,90,1,3,red,,,,0,0,0,0,0,38,38,38,,,,,,,,,,,,,,,,,,,,,,,,,,,,,63.50922899999932,,,,,,,,,,,,,63.50239549999969,63.50922899999932,63.50922899999932,63.70994879999944,63.84355329999926,3,1,0.3300888000003397,None,63.8443041999999,63.85237569999936,63.85237569999936,64.05710920000001,64.26548009999988,64.26009239999985,64.26014439999926,64.26548009999988,64.96076589999939,64.96699910000007,,,,,,,,,,,,,,,,,,,,,,,,,,,,,,,,,,,,,,,,,,,,,,,,,,,,,,,sub103,percept,6,0,2024-08-07_15h04.46.095,ASRT_percept,2023.2.3,141.15601126901132,2024-08-07 15h05.17.327586 +0800,
sequences/sub103_initial_random.csv,0,0,0,4,red,,,,0,0,0,0,0,39,39,39,,,,,,,,,,,,,,,,,,,,,,,,,,,,,64.96699910000007,,,,,,,,,,,,,64.96145230000002,64.96699910000007,64.96699910000007,65.16822169999978,65.4155596999999,4,1,0.4447264999998879,None,65.41643419999946,65.42448329999934,65.42448329999934,65.62626369999998,65.83465290000004,65.82867420000002,65.82871329999944,65.83465290000004,66.53045680000014,,,,,,,,,,,,,,,,,,,,,,,,,,,,,,,,,,,,,,,,,,,,,,,,,,,,,,,,sub103,percept,6,0,2024-08-07_15h04.46.095,ASRT_percept,2023.2.3,141.15601126901132,2024-08-07 15h05.17.327586 +0800,
sequences/sub103_initial_random.csv,1,90,1,3,red,,,,0,0,0,0,0,40,40,40,,,,,,,,,,,,,,,,,,,,,,,,,,,,,66.54025129999991,,,,,,,,,,,,,66.53120639999997,66.54025129999991,66.54025129999991,66.74441119999938,66.97585509999954,3,1,0.43102839999937714,None,66.97653159999936,66.98351779999939,66.98351779999939,67.18886320000001,67.3981432999999,67.3921878000001,67.3922335999996,67.3981432999999,68.09242209999957,,,,,,,,,,,,,,,,,,,,,,,,,,,,,,,,,,,,,,,,,,,,,,,,,,,,,,,,sub103,percept,6,0,2024-08-07_15h04.46.095,ASRT_percept,2023.2.3,141.15601126901132,2024-08-07 15h05.17.327586 +0800,
sequences/sub103_initial_random.csv,2,180,2,2,red,,,,0,0,0,0,0,41,41,41,,,,,,,,,,,,,,,,,,,,,,,,,,,,,68.10042909999993,,,,,,,,,,,,,68.09315939999942,68.10042909999993,68.10042909999993,68.3002219,68.47553889999926,2,1,0.3709908999999243,None,68.47616769999968,68.482258,68.482258,68.68910049999977,68.8979948999995,68.89250769999944,68.89256639999985,68.8979948999995,69.5929914999997,69.59939249999934,,,,,,,,,,,,,,,,,,,,,,,,,,,,,,,,,,,,,,,,,,,,,,,,,,,,,,,sub103,percept,6,0,2024-08-07_15h04.46.095,ASRT_percept,2023.2.3,141.15601126901132,2024-08-07 15h05.17.327586 +0800,
sequences/sub103_initial_random.csv,3,270,3,1,red,,,,0,0,0,0,0,42,42,42,,,,,,,,,,,,,,,,,,,,,,,,,,,,,69.59939249999934,,,,,,,,,,,,,69.59368259999974,69.59939249999934,69.59939249999934,69.80002189999959,69.9969846999993,1,1,0.39357509999990725,None,69.99763970000004,70.00384489999942,70.00384489999942,70.20934409999973,70.4178965000001,70.41290919999938,70.41296199999942,70.4178965000001,71.11389819999931,71.11965789999977,,,,,,,,,,,,,,,,,,,,,,,,,,,,,,,,,,,,,,,,,,,,,,,,,,,,,,,sub103,percept,6,0,2024-08-07_15h04.46.095,ASRT_percept,2023.2.3,141.15601126901132,2024-08-07 15h05.17.327586 +0800,
sequences/sub103_initial_random.csv,3,270,3,1,red,,,,0,0,0,0,0,43,43,43,,,,,,,,,,,,,,,,,,,,,,,,,,,,,71.11965789999977,,,,,,,,,,,,,71.11444539999957,71.11965789999977,71.11965789999977,71.32084469999972,71.5036111999998,1,1,0.38141619999987597,None,71.50429089999943,71.51271739999993,71.51271739999993,71.71680190000006,71.92579789999945,71.91899869999997,71.91903649999949,71.92579789999945,72.61965059999966,,,,,,,,,,,,,,,,,,,,,,,,,,,,,,,,,,,,,,,,,,,,,,,,,,,,,,,,sub103,percept,6,0,2024-08-07_15h04.46.095,ASRT_percept,2023.2.3,141.15601126901132,2024-08-07 15h05.17.327586 +0800,
sequences/sub103_initial_random.csv,2,180,2,2,red,,,,0,0,0,0,0,44,44,44,,,,,,,,,,,,,,,,,,,,,,,,,,,,,72.62617299999965,,,,,,,,,,,,,72.62029399999938,72.62617299999965,72.62617299999965,72.82908489999954,73.03884819999985,2,1,0.40478859999984707,None,73.03973009999936,73.04560219999985,73.04560219999985,73.25178919999962,73.45947789999991,73.45420079999985,73.45424719999937,73.45947789999991,74.1549230999999,74.16046329999972,,,,,,,,,,,,,,,,,,,,,,,,,,,,,,,,,,,,,,,,,,,,,,,,,,,,,,,sub103,percept,6,0,2024-08-07_15h04.46.095,ASRT_percept,2023.2.3,141.15601126901132,2024-08-07 15h05.17.327586 +0800,
sequences/sub103_initial_random.csv,2,180,2,2,red,,,,0,0,0,0,0,45,45,45,,,,,,,,,,,,,,,,,,,,,,,,,,,,,74.16046329999972,,,,,,,,,,,,,74.15549719999945,74.16046329999972,74.16046329999972,74.36311679999926,74.55456739999954,2,1,0.3898578999996971,None,74.55544029999965,74.56315769999946,74.56315769999946,74.76552769999944,74.97367570000006,74.96815900000001,74.96821139999975,74.97367570000006,75.66893230000005,75.67568609999944,,,,,,,,,,,,,,,,,,,,,,,,,,,,,,,,,,,,,,,,,,,,,,,,,,,,,,,sub103,percept,6,0,2024-08-07_15h04.46.095,ASRT_percept,2023.2.3,141.15601126901132,2024-08-07 15h05.17.327586 +0800,
sequences/sub103_initial_random.csv,1,90,1,3,red,,,,0,0,0,0,0,46,46,46,,,,,,,,,,,,,,,,,,,,,,,,,,,,,75.67568609999944,,,,,,,,,,,,,75.66954329999953,75.67568609999944,75.67568609999944,75.87627339999926,76.05864849999944,3,1,0.3790874000005715,None,76.05928839999979,76.06429019999996,76.06429019999996,76.27268619999995,76.48043189999953,76.47459720000006,76.47464359999958,76.48043189999953,77.17491689999952,,,,,,,,,,,,,,,,,,,,,,,,,,,,,,,,,,,,,,,,,,,,,,,,,,,,,,,,sub103,percept,6,0,2024-08-07_15h04.46.095,ASRT_percept,2023.2.3,141.15601126901132,2024-08-07 15h05.17.327586 +0800,
sequences/sub103_initial_random.csv,0,0,0,4,red,,,,0,0,0,0,0,47,47,47,,,,,,,,,,,,,,,,,,,,,,,,,,,,,77.18312909999986,,,,,,,,,,,,,77.17571529999987,77.18312909999986,77.18312909999986,77.38344280000001,77.58705610000015,4,1,0.39740789999996196,None,77.5876905999994,77.59521319999931,77.59521319999931,77.79969009999968,78.00924909999958,78.00265049999962,78.0026971999996,78.00924909999958,78.70287980000012,,,,,,,,,,,,,,,,,,,,,,,,,,,,,,,,,,,,,,,,,,,,,,,,,,,,,,,,sub103,percept,6,0,2024-08-07_15h04.46.095,ASRT_percept,2023.2.3,141.15601126901132,2024-08-07 15h05.17.327586 +0800,
sequences/sub103_initial_random.csv,0,0,0,4,red,,,,0,0,0,0,0,48,48,48,,,,,,,,,,,,,,,,,,,,,,,,,,,,,78.7090804999998,,,,,,,,,,,,,78.70362209999985,78.7090804999998,78.7090804999998,78.91079089999948,79.07320739999977,4,1,0.35874369999964983,None,79.07395610000003,79.07937149999998,79.07937149999998,79.28598890000012,79.4938818999999,79.48842429999968,79.48847099999966,79.4938818999999,80.18936419999955,,,,,,,,,,,,,,,,,,,,,,,,,,,,,,,,,,,,,,,,,,,,,,,,,,,,,,,,sub103,percept,6,0,2024-08-07_15h04.46.095,ASRT_percept,2023.2.3,141.15601126901132,2024-08-07 15h05.17.327586 +0800,
sequences/sub103_initial_random.csv,1,90,1,3,red,,,,0,0,0,0,0,49,49,49,,,,,,,,,,,,,,,,,,,,,,,,,,,,,80.19881389999955,,,,,,,,,,,,,80.19007179999971,80.19881389999955,80.19881389999955,80.40483289999975,80.58066169999984,3,1,0.3767721000003803,None,80.58144699999957,80.59154229999967,80.59154229999967,80.79304799999954,81.00153039999987,80.9954917999994,80.99554609999996,81.00153039999987,81.69591499999933,,,,,,,,,,,,,,,,,,,,,,,,,,,,,,,,,,,,,,,,,,,,,,,,,,,,,,,,sub103,percept,6,0,2024-08-07_15h04.46.095,ASRT_percept,2023.2.3,141.15601126901132,2024-08-07 15h05.17.327586 +0800,
sequences/sub103_initial_random.csv,1,90,1,3,red,,,,0,0,0,0,0,50,50,50,,,,,,,,,,,,,,,,,,,,,,,,,,,,,81.7032578999997,,,,,,,,,,,,,81.69671279999966,81.7032578999997,81.7032578999997,81.90431029999945,82.0516050999995,3,1,0.3451933000005738,None,82.05232019999949,82.0608229999998,82.0608229999998,82.26504419999947,82.47503999999935,82.46875899999941,82.46881020000001,82.47503999999935,83.16909459999988,83.17526790000011,,,,,,,,,,,,,,,,,,,,,,,,,,,,,,,,,,,,,,,,,,,,,,,,,,,,,,,sub103,percept,6,0,2024-08-07_15h04.46.095,ASRT_percept,2023.2.3,141.15601126901132,2024-08-07 15h05.17.327586 +0800,
sequences/sub103_initial_random.csv,0,0,0,4,red,,,,0,0,0,0,0,51,51,51,,,,,,,,,,,,,,,,,,,,,,,,,,,,,83.17526790000011,,,,,,,,,,,,,83.1697280999997,83.17526790000011,83.17526790000011,83.37598269999944,83.6081921999994,4,1,0.4304076999997051,None,83.60885729999973,83.61582959999942,83.61582959999942,83.82036879999941,84.02895509999962,84.02305609999985,84.0231034999997,84.02895509999962,84.72366779999993,,,,,,,,,,,,,,,,,,,,,,,,,,,,,,,,,,,,,,,,,,,,,,,,,,,,,,,,sub103,percept,6,0,2024-08-07_15h04.46.095,ASRT_percept,2023.2.3,141.15601126901132,2024-08-07 15h05.17.327586 +0800,
sequences/sub103_initial_random.csv,3,270,3,1,red,,,,0,0,0,0,0,52,52,52,,,,,,,,,,,,,,,,,,,,,,,,,,,,,84.73107720000007,,,,,,,,,,,,,84.72436870000001,84.73107720000007,84.73107720000007,84.93176279999989,85.11410889999934,1,1,0.3756031000002622,None,85.11502609999934,85.12132500000007,85.12132500000007,85.32727189999969,85.53555079999933,85.52949959999933,85.52953530000013,85.53555079999933,86.23068609999973,,,,,,,,,,,,,,,,,,,,,,,,,,,,,,,,,,,,,,,,,,,,,,,,,,,,,,,,sub103,percept,6,0,2024-08-07_15h04.46.095,ASRT_percept,2023.2.3,141.15601126901132,2024-08-07 15h05.17.327586 +0800,
sequences/sub103_initial_random.csv,3,270,3,1,red,,,,0,0,0,0,0,53,53,53,,,,,,,,,,,,,,,,,,,,,,,,,,,,,86.23785640000006,,,,,,,,,,,,,86.23150259999966,86.23785640000006,86.23785640000006,86.43823609999981,86.57293349999964,1,1,0.32977610000034474,None,86.57365969999955,86.57943199999954,86.57943199999954,86.78532509999968,86.99426679999942,86.98817150000013,86.98821439999938,86.99426679999942,87.6890827999996,,,,,,,,,,,,,,,,,,,,,,,,,,,,,,,,,,,,,,,,,,,,,,,,,,,,,,,,sub103,percept,6,0,2024-08-07_15h04.46.095,ASRT_percept,2023.2.3,141.15601126901132,2024-08-07 15h05.17.327586 +0800,
sequences/sub103_initial_random.csv,3,270,3,1,red,,,,0,0,0,0,0,54,54,54,,,,,,,,,,,,,,,,,,,,,,,,,,,,,87.69488499999989,,,,,,,,,,,,,87.68968379999933,87.69488499999989,87.69488499999989,87.89713010000014,88.05868349999946,1,1,0.36078880000059144,None,88.05928140000015,88.06533589999981,88.06533589999981,88.27175429999988,88.47966509999969,88.47412949999944,88.47416919999978,88.47966509999969,89.17507509999996,,,,,,,,,,,,,,,,,,,,,,,,,,,,,,,,,,,,,,,,,,,,,,,,,,,,,,,,sub103,percept,6,0,2024-08-07_15h04.46.095,ASRT_percept,2023.2.3,141.15601126901132,2024-08-07 15h05.17.327586 +0800,
sequences/sub103_initial_random.csv,3,270,3,1,red,,,,0,0,0,0,0,55,55,55,,,,,,,,,,,,,,,,,,,,,,,,,,,,,89.18109539999932,,,,,,,,,,,,,89.17561249999926,89.18109539999932,89.18109539999932,89.38284099999964,89.53076710000005,1,1,0.34624199999962,None,89.53155939999942,89.53846059999978,89.53846059999978,89.7439418999993,89.95245819999946,89.94632629999978,89.94636369999989,89.95245819999946,90.64684080000006,,,,,,,,,,,,,,,,,,,,,,,,,,,,,,,,,,,,,,,,,,,,,,,,,,,,,,,,sub103,percept,6,0,2024-08-07_15h04.46.095,ASRT_percept,2023.2.3,141.15601126901132,2024-08-07 15h05.17.327586 +0800,
sequences/sub103_initial_random.csv,3,270,3,1,red,,,,0,0,0,0,0,56,56,56,,,,,,,,,,,,,,,,,,,,,,,,,,,,,90.65359489999992,,,,,,,,,,,,,90.64743989999988,90.65359489999992,90.65359489999992,90.85514369999964,91.03062769999997,1,1,0.3718833999992057,None,91.03127929999937,91.03734449999956,91.03734449999956,91.24400559999958,91.45234720000008,91.44677789999969,91.44681859999946,91.45234720000008,92.1475918999995,92.15333819999978,,,,,,,,,,,,,,,,,,,,,,,,,,,,,,,,,,,,,,,,,,,,,,,,,,,,,,,sub103,percept,6,0,2024-08-07_15h04.46.095,ASRT_percept,2023.2.3,141.15601126901132,2024-08-07 15h05.17.327586 +0800,
sequences/sub103_initial_random.csv,3,270,3,1,red,,,,0,0,0,0,0,57,57,57,,,,,,,,,,,,,,,,,,,,,,,,,,,,,92.15333819999978,,,,,,,,,,,,,92.14820169999985,92.15333819999978,92.15333819999978,92.35498430000007,92.5298589999993,1,1,0.3694820000000618,None,92.5304757999993,92.53513479999947,92.53513479999947,92.74367110000003,92.95216809999965,92.94653339999968,92.94656889999987,92.95216809999965,93.64752580000004,,,,,,,,,,,,,,,,,,,,,,,,,,,,,,,,,,,,,,,,,,,,,,,,,,,,,,,,sub103,percept,6,0,2024-08-07_15h04.46.095,ASRT_percept,2023.2.3,141.15601126901132,2024-08-07 15h05.17.327586 +0800,
sequences/sub103_initial_random.csv,1,90,1,3,red,,,,0,0,0,0,0,58,58,58,,,,,,,,,,,,,,,,,,,,,,,,,,,,,93.65332909999961,,,,,,,,,,,,,93.64809379999951,93.65332909999961,93.65332909999961,93.85459230000015,93.98281829999996,3,1,0.3265493000008064,None,93.98349030000008,93.99362529999962,93.99362529999962,94.2597797999997,94.46747099999993,94.46168899999975,94.46172419999948,94.46747099999993,95.16212610000002,,,,,,,,,,,,,,,,,,,,,,,,,,,,,,,,,,,,,,,,,,,,,,,,,,,,,,,,sub103,percept,6,0,2024-08-07_15h04.46.095,ASRT_percept,2023.2.3,141.15601126901132,2024-08-07 15h05.17.327586 +0800,
sequences/sub103_initial_random.csv,2,180,2,2,red,,,,0,0,0,0,0,59,59,59,,,,,,,,,,,,,,,,,,,,,,,,,,,,,95.16865019999932,,,,,,,,,,,,,95.16262370000004,95.16865019999932,95.16865019999932,95.37032029999955,95.47111799999948,2,1,0.29928190000009636,None,95.47199939999973,95.4781009999997,95.4781009999997,95.68284929999936,95.89097009999932,95.88479120000011,95.88482419999946,95.89097009999932,96.58618130000013,,,,,,,,,,,,,,,,,,,,,,,,,,,,,,,,,,,,,,,,,,,,,,,,,,,,,,,,sub103,percept,6,0,2024-08-07_15h04.46.095,ASRT_percept,2023.2.3,141.15601126901132,2024-08-07 15h05.17.327586 +0800,
sequences/sub103_initial_random.csv,0,0,0,4,red,,,,0,0,0,0,0,60,60,60,,,,,,,,,,,,,,,,,,,,,,,,,,,,,96.59285539999928,,,,,,,,,,,,,96.58675949999997,96.59285539999928,96.59285539999928,96.79398390000006,96.98319910000009,4,1,0.3846406000002389,None,96.98395739999978,96.99017099999946,96.99017099999946,97.1964011,97.40479469999991,97.3992131999994,97.39924799999972,97.40479469999991,98.0993912999993,,,,,,,,,,,,,,,,,,,,,,,,,,,,,,,,,,,,,,,,,,,,,,,,,,,,,,,,sub103,percept,6,0,2024-08-07_15h04.46.095,ASRT_percept,2023.2.3,141.15601126901132,2024-08-07 15h05.17.327586 +0800,
sequences/sub103_initial_random.csv,0,0,0,4,red,,,,0,0,0,0,0,61,61,61,,,,,,,,,,,,,,,,,,,,,,,,,,,,,98.10630969999966,,,,,,,,,,,,,98.0998370999996,98.10630969999966,98.10630969999966,98.30779489999986,98.49689940000007,4,1,0.3843071000001146,None,98.49747089999983,98.50374019999981,98.50374019999981,98.71072659999936,98.9191252999999,98.91319959999964,98.91324319999967,98.9191252999999,99.61346649999996,,,,,,,,,,,,,,,,,,,,,,,,,,,,,,,,,,,,,,,,,,,,,,,,,,,,,,,,sub103,percept,6,0,2024-08-07_15h04.46.095,ASRT_percept,2023.2.3,141.15601126901132,2024-08-07 15h05.17.327586 +0800,
sequences/sub103_initial_random.csv,2,180,2,2,red,,,,0,0,0,0,0,62,62,62,,,,,,,,,,,,,,,,,,,,,,,,,,,,,99.62023210000007,,,,,,,,,,,,,99.61416469999949,99.62023210000007,99.62023210000007,99.82159349999984,99.96919499999967,2,1,0.3424046999998609,None,99.96983089999958,99.97607849999986,99.97607849999986,100.18293119999998,100.39106059999995,100.38511879999987,100.38515389999975,100.39106059999995,101.08589810000012,101.09204270000009,,,,,,,,,,,,,,,,,,,,,,,,,,,,,,,,,,,,,,,,,,,,,,,,,,,,,,,sub103,percept,6,0,2024-08-07_15h04.46.095,ASRT_percept,2023.2.3,141.15601126901132,2024-08-07 15h05.17.327586 +0800,
sequences/sub103_initial_random.csv,0,0,0,4,red,,,,0,0,0,0,0,63,63,63,,,,,,,,,,,,,,,,,,,,,,,,,,,,,101.09204270000009,,,,,,,,,,,,,101.08642919999966,101.09204270000009,101.09204270000009,101.29394869999942,101.45571649999965,4,1,0.36100810000061756,None,101.4563847999998,101.46160439999949,101.46160439999949,101.66889809999975,101.8770528999994,101.8709001999996,101.87093289999939,101.8770528999994,102.5719309999995,,,,,,,,,,,,,,,,,,,,,,,,,,,,,,,,,,,,,,,,,,,,,,,,,,,,,,,,sub103,percept,6,0,2024-08-07_15h04.46.095,ASRT_percept,2023.2.3,141.15601126901132,2024-08-07 15h05.17.327586 +0800,
sequences/sub103_initial_random.csv,1,90,1,3,red,,,,0,0,0,0,0,64,64,64,,,,,,,,,,,,,,,,,,,,,,,,,,,,,102.5782492999997,,,,,,,,,,,,,102.57244730000002,102.5782492999997,102.5782492999997,102.78013789999932,102.93594819999998,3,1,0.3550576000006913,None,102.93655330000001,102.9411841000001,102.9411841000001,103.14793199999986,103.35644069999944,103.35055609999927,103.35060279999925,103.35644069999944,104.05153759999939,,,,,,,,,,,,,,,,,,,,,,,,,,,,,,,,,,,,,,,,,,,,,,,,,,,,,,,,sub103,percept,6,0,2024-08-07_15h04.46.095,ASRT_percept,2023.2.3,141.15601126901132,2024-08-07 15h05.17.327586 +0800,
sequences/sub103_initial_random.csv,0,0,0,4,red,,,,0,0,0,0,0,65,65,65,,,,,,,,,,,,,,,,,,,,,,,,,,,,,104.06057460000011,,,,,,,,,,,,,104.05232309999974,104.06057460000011,104.06057460000011,104.26603989999967,104.46340099999998,4,1,0.3998126000005868,None,104.46396639999966,104.47099089999938,104.47099089999938,104.67546279999988,104.88384489999953,104.87837309999941,104.87847329999931,104.88384489999953,105.57910850000007,105.5852033000001,,,,,,,,,,,,,,,,,,,,,,,,,,,,,,,,,,,,,,,,,,,,,,,,,,,,,,,sub103,percept,6,0,2024-08-07_15h04.46.095,ASRT_percept,2023.2.3,141.15601126901132,2024-08-07 15h05.17.327586 +0800,
sequences/sub103_initial_random.csv,1,90,1,3,red,,,,0,0,0,0,0,66,66,66,,,,,,,,,,,,,,,,,,,,,,,,,,,,,105.5852033000001,,,,,,,,,,,,,105.57968819999951,105.5852033000001,105.5852033000001,105.7868424999997,105.97656229999939,3,1,0.3851925000008123,None,105.9772041999995,105.98200149999957,105.98200149999957,106.18927660000008,106.39769649999926,106.39185019999968,106.3918821999996,106.39769649999926,107.09242619999986,,,,,,,,,,,,,,,,,,,,,,,,,,,,,,,,,,,,,,,,,,,,,,,,,,,,,,,,sub103,percept,6,0,2024-08-07_15h04.46.095,ASRT_percept,2023.2.3,141.15601126901132,2024-08-07 15h05.17.327586 +0800,
sequences/sub103_initial_random.csv,0,0,0,4,red,,,,0,0,0,0,0,67,67,67,,,,,,,,,,,,,,,,,,,,,,,,,,,,,107.09900209999978,,,,,,,,,,,,,107.09297809999953,107.09900209999978,107.09900209999978,107.30067650000001,107.45035819999976,4,1,0.3481937000005928,None,107.45136839999941,107.4576819999993,107.4576819999993,107.66174449999926,107.87007970000013,107.86382270000013,107.86385849999988,107.87007970000013,108.56484209999962,,,,,,,,,,,,,,,,,,,,,,,,,,,,,,,,,,,,,,,,,,,,,,,,,,,,,,,,sub103,percept,6,0,2024-08-07_15h04.46.095,ASRT_percept,2023.2.3,141.15601126901132,2024-08-07 15h05.17.327586 +0800,
sequences/sub103_initial_random.csv,0,0,0,4,red,,,,0,0,0,0,0,68,68,68,,,,,,,,,,,,,,,,,,,,,,,,,,,,,108.57134760000008,,,,,,,,,,,,,108.56535499999973,108.57134760000008,108.57134760000008,108.77294569999958,109.01007859999936,4,1,0.4319338000004791,None,109.01069639999969,109.01536899999974,109.01536899999974,109.2245912999997,109.43231899999955,109.42667619999975,109.42672299999958,109.43231899999955,110.12735659999998,,,,,,,,,,,,,,,,,,,,,,,,,,,,,,,,,,,,,,,,,,,,,,,,,,,,,,,,sub103,percept,6,0,2024-08-07_15h04.46.095,ASRT_percept,2023.2.3,141.15601126901132,2024-08-07 15h05.17.327586 +0800,
sequences/sub103_initial_random.csv,2,180,2,2,red,,,,0,0,0,0,0,69,69,69,,,,,,,,,,,,,,,,,,,,,,,,,,,,,110.13410399999975,,,,,,,,,,,,,110.12790499999937,110.13410399999975,110.13410399999975,110.33515709999938,110.54634420000002,2,1,0.40908239999953366,None,110.54698899999948,110.55458829999952,110.55458829999952,110.75878899999952,110.96699309999985,110.96132659999967,110.96136429999933,110.96699309999985,111.66220089999933,,,,,,,,,,,,,,,,,,,,,,,,,,,,,,,,,,,,,,,,,,,,,,,,,,,,,,,,sub103,percept,6,0,2024-08-07_15h04.46.095,ASRT_percept,2023.2.3,141.15601126901132,2024-08-07 15h05.17.327586 +0800,
sequences/sub103_initial_random.csv,2,180,2,2,red,,,,0,0,0,0,0,70,70,70,,,,,,,,,,,,,,,,,,,,,,,,,,,,,111.66938200000004,,,,,,,,,,,,,111.6628125999996,111.66938200000004,111.66938200000004,111.87028889999965,112.12124439999934,2,1,0.4469948999994813,None,112.12187209999956,112.12637899999936,112.12637899999936,112.33523030000015,112.54349449999972,112.53723069999978,112.5372669999997,112.54349449999972,113.23806149999928,,,,,,,,,,,,,,,,,,,,,,,,,,,,,,,,,,,,,,,,,,,,,,,,,,,,,,,,sub103,percept,6,0,2024-08-07_15h04.46.095,ASRT_percept,2023.2.3,141.15601126901132,2024-08-07 15h05.17.327586 +0800,
sequences/sub103_initial_random.csv,3,270,3,1,red,,,,0,0,0,0,0,71,71,71,,,,,,,,,,,,,,,,,,,,,,,,,,,,,113.24504209999941,,,,,,,,,,,,,113.23863789999996,113.24504209999941,113.24504209999941,113.44630869999946,113.62249799999972,1,1,0.37233219999961875,None,113.62312569999995,113.62961240000004,113.62961240000004,113.83551959999932,114.04327130000001,114.03772739999931,114.03777339999942,114.04327130000001,114.7383977999998,,,,,,,,,,,,,,,,,,,,,,,,,,,,,,,,,,,,,,,,,,,,,,,,,,,,,,,,sub103,percept,6,0,2024-08-07_15h04.46.095,ASRT_percept,2023.2.3,141.15601126901132,2024-08-07 15h05.17.327586 +0800,
sequences/sub103_initial_random.csv,2,180,2,2,red,,,,0,0,0,0,0,72,72,72,,,,,,,,,,,,,,,,,,,,,,,,,,,,,114.74497749999955,,,,,,,,,,,,,114.73897619999934,114.74497749999955,114.74497749999955,114.94612649999999,115.13440719999926,2,1,0.3826246999997238,None,115.13472360000014,115.14036929999929,115.14036929999929,115.34901199999968,115.55709569999999,115.55102299999999,115.55105869999988,115.55709569999999,116.25229169999966,,,,,,,,,,,,,,,,,,,,,,,,,,,,,,,,,,,,,,,,,,,,,,,,,,,,,,,,sub103,percept,6,0,2024-08-07_15h04.46.095,ASRT_percept,2023.2.3,141.15601126901132,2024-08-07 15h05.17.327586 +0800,
sequences/sub103_initial_random.csv,0,0,0,4,red,,,,0,0,0,0,0,73,73,73,,,,,,,,,,,,,,,,,,,,,,,,,,,,,116.25865509999949,,,,,,,,,,,,,116.25278089999938,116.25865509999949,116.25865509999949,116.46001369999976,116.60366160000012,4,1,0.341818200000489,None,116.60432289999972,116.61019020000003,116.61019020000003,116.81437860000005,117.02227909999965,117.01651929999935,117.01655779999965,117.02227909999965,117.71714530000008,,,,,,,,,,,,,,,,,,,,,,,,,,,,,,,,,,,,,,,,,,,,,,,,,,,,,,,,sub103,percept,6,0,2024-08-07_15h04.46.095,ASRT_percept,2023.2.3,141.15601126901132,2024-08-07 15h05.17.327586 +0800,
sequences/sub103_initial_random.csv,1,90,1,3,red,,,,0,0,0,0,0,74,74,74,,,,,,,,,,,,,,,,,,,,,,,,,,,,,117.72413939999933,,,,,,,,,,,,,117.71759620000012,117.72413939999933,117.72413939999933,117.92508389999966,118.08648839999933,3,1,0.35521020000032877,None,118.08698529999947,118.09249819999968,118.09249819999968,118.30023509999955,118.50863669999944,118.50307769999927,118.5031186999995,118.50863669999944,119.2048119000001,,,,,,,,,,,,,,,,,,,,,,,,,,,,,,,,,,,,,,,,,,,,,,,,,,,,,,,,sub103,percept,6,0,2024-08-07_15h04.46.095,ASRT_percept,2023.2.3,141.15601126901132,2024-08-07 15h05.17.327586 +0800,
sequences/sub103_initial_random.csv,2,180,2,2,red,,,,0,0,0,0,0,75,75,75,,,,,,,,,,,,,,,,,,,,,,,,,,,,,119.20989199999985,,,,,,,,,,,,,119.20530239999971,119.20989199999985,119.20989199999985,119.41136490000008,119.6140650999996,2,1,0.3971553999999742,None,119.61479879999933,119.61932429999979,119.61932429999979,119.82785679999961,120.0361597000001,120.03087409999989,120.03092089999973,120.0361597000001,120.73214550000012,120.73919389999992,,,,,,,,,,,,,,,,,,,,,,,,,,,,,,,,,,,,,,,,,,,,,,,,,,,,,,,sub103,percept,6,0,2024-08-07_15h04.46.095,ASRT_percept,2023.2.3,141.15601126901132,2024-08-07 15h05.17.327586 +0800,
sequences/sub103_initial_random.csv,2,180,2,2,red,,,,0,0,0,0,0,76,76,76,,,,,,,,,,,,,,,,,,,,,,,,,,,,,120.73919389999992,,,,,,,,,,,,,120.73274729999957,120.73919389999992,120.73919389999992,120.93904409999959,121.14183309999953,2,1,0.39516509999975824,None,121.14232670000001,121.14686350000011,121.14686350000011,121.35575029999927,121.56406699999934,121.55859319999945,121.55863520000003,121.56406699999934,122.25894749999952,,,,,,,,,,,,,,,,,,,,,,,,,,,,,,,,,,,,,,,,,,,,,,,,,,,,,,,,sub103,percept,6,0,2024-08-07_15h04.46.095,ASRT_percept,2023.2.3,141.15601126901132,2024-08-07 15h05.17.327586 +0800,
sequences/sub103_initial_random.csv,0,0,0,4,red,,,,0,0,0,0,0,77,77,77,,,,,,,,,,,,,,,,,,,,,,,,,,,,,122.26613339999949,,,,,,,,,,,,,122.25971219999974,122.26613339999949,122.26613339999949,122.46692629999961,122.62900699999955,4,1,0.3561100999995688,None,122.62955059999967,122.63560679999955,122.63560679999955,122.84174199999961,123.05064039999979,123.04410969999935,123.04414869999982,123.05064039999979,123.74484630000006,,,,,,,,,,,,,,,,,,,,,,,,,,,,,,,,,,,,,,,,,,,,,,,,,,,,,,,,sub103,percept,6,0,2024-08-07_15h04.46.095,ASRT_percept,2023.2.3,141.15601126901132,2024-08-07 15h05.17.327586 +0800,
sequences/sub103_initial_random.csv,1,90,1,3,red,,,,0,0,0,0,0,78,78,78,,,,,,,,,,,,,,,,,,,,,,,,,,,,,123.75134969999999,,,,,,,,,,,,,123.74542769999971,123.75134969999999,123.75134969999999,123.95294759999979,124.10085449999951,3,1,0.34283270000014454,None,124.10145959999954,124.10680769999999,124.10680769999999,124.31404969999949,124.52226429999973,124.5166479999998,124.51669039999979,124.52226429999973,125.21728429999985,,,,,,,,,,,,,,,,,,,,,,,,,,,,,,,,,,,,,,,,,,,,,,,,,,,,,,,,sub103,percept,6,0,2024-08-07_15h04.46.095,ASRT_percept,2023.2.3,141.15601126901132,2024-08-07 15h05.17.327586 +0800,
sequences/sub103_initial_random.csv,2,180,2,2,red,,,,0,0,0,0,0,79,79,79,,,,,,,,,,,,,,,,,,,,,,,,,,,,,125.2245984000001,,,,,,,,,,,,,125.21798559999934,125.2245984000001,125.2245984000001,125.42510820000007,125.5451863999997,2,1,0.3166665999997349,None,125.54572749999988,125.55112329999974,125.55112329999974,125.75834779999968,125.96661069999936,125.96053479999955,125.9605732,125.96661069999936,126.66140769999947,,,,,,,,,,,,,,,,,,,,,,,,,,,,,,,,,,,,,,,,,,,,,,,,,,,,,,,,sub103,percept,6,0,2024-08-07_15h04.46.095,ASRT_percept,2023.2.3,141.15601126901132,2024-08-07 15h05.17.327586 +0800,
sequences/sub103_initial_random.csv,3,270,3,1,red,,,,0,0,0,0,0,80,80,80,,,,,,,,,,,,,,,,,,,,,,,,,,,,,126.66798909999943,,,,,,,,,,,,,126.66200469999967,126.66798909999943,126.66798909999943,126.86958959999993,127.08755159999964,1,1,0.4171635000002425,None,127.08820070000002,127.09380689999944,127.09380689999944,127.30035390000012,127.50844869999946,127.50264439999955,127.50268259999939,127.50844869999946,128.20325429999957,128.2097630999997,,,,,,,,,,,,,,,,,,,,,,,,,,,,,,,,,,,,,,,,,,,,,,,,,,,,,,,sub103,percept,6,0,2024-08-07_15h04.46.095,ASRT_percept,2023.2.3,141.15601126901132,2024-08-07 15h05.17.327586 +0800,
sequences/sub103_initial_random.csv,3,270,3,1,red,,,,0,0,0,0,0,81,81,81,,,,,,,,,,,,,,,,,,,,,,,,,,,,,128.2097630999997,,,,,,,,,,,,,128.20370829999956,128.2097630999997,128.2097630999997,128.41122180000002,128.57313739999972,1,1,0.3572970000004716,None,128.57379169999967,128.58027309999943,128.58027309999943,128.78612749999957,128.99430380000013,128.98886849999963,128.98890959999972,128.99430380000013,129.68947169999956,,,,,,,,,,,,,,,,,,,,,,,,,,,,,,,,,,,,,,,,,,,,,,,,,,,,,,,,sub103,percept,6,0,2024-08-07_15h04.46.095,ASRT_percept,2023.2.3,141.15601126901132,2024-08-07 15h05.17.327586 +0800,
sequences/sub103_initial_random.csv,3,270,3,1,red,,,,0,0,0,0,0,82,82,82,,,,,,,,,,,,,,,,,,,,,,,,,,,,,129.69632019999972,,,,,,,,,,,,,129.68994179999936,129.69632019999972,129.69632019999972,129.8973520999998,130.02652880000005,1,1,0.32681120000052033,None,130.02728529999968,130.03308219999963,130.03308219999963,130.23820290000003,130.44599409999955,130.43939479999972,130.43942239999978,130.44599409999955,131.1408382999998,,,,,,,,,,,,,,,,,,,,,,,,,,,,,,,,,,,,,,,,,,,,,,,,,,,,,,,,sub103,percept,6,0,2024-08-07_15h04.46.095,ASRT_percept,2023.2.3,141.15601126901132,2024-08-07 15h05.17.327586 +0800,
sequences/sub103_initial_random.csv,0,0,0,4,red,,,,0,0,0,0,0,83,83,83,,,,,,,,,,,,,,,,,,,,,,,,,,,,,131.1481931999997,,,,,,,,,,,,,131.14141819999986,131.1481931999997,131.1481931999997,131.34870039999987,131.52436669999952,4,1,0.3725303000001077,None,131.5250761999996,131.53095229999963,131.53095229999963,131.73768669999936,131.94588919999933,131.94026359999953,131.9403016999995,131.94588919999933,132.6406806999994,,,,,,,,,,,,,,,,,,,,,,,,,,,,,,,,,,,,,,,,,,,,,,,,,,,,,,,,sub103,percept,6,0,2024-08-07_15h04.46.095,ASRT_percept,2023.2.3,141.15601126901132,2024-08-07 15h05.17.327586 +0800,
sequences/sub103_initial_random.csv,0,0,0,4,red,,,,0,0,0,0,0,84,84,84,,,,,,,,,,,,,,,,,,,,,,,,,,,,,132.64698339999995,,,,,,,,,,,,,132.64123859999927,132.64698339999995,132.64698339999995,132.84882899999957,133.00974580000002,4,1,0.3600992000001497,None,133.01043599999957,133.01495220000015,133.01495220000015,133.22364279999965,133.4320176000001,133.42592609999974,133.42595939999956,133.4320176000001,134.12642389999928,,,,,,,,,,,,,,,,,,,,,,,,,,,,,,,,,,,,,,,,,,,,,,,,,,,,,,,,sub103,percept,6,0,2024-08-07_15h04.46.095,ASRT_percept,2023.2.3,141.15601126901132,2024-08-07 15h05.17.327586 +0800,
,,,,,,,,,,,,,,,,,,,,,,,,,,,,,,,,,,,,,,,,,,,,,,,,,,,,,,,,,,,,,,,,,,,,,,,,,,,,,134.12662229999933,134.15724479999972,134.15724479999972,138.16114429999925,161.8836621999999,space,27.71922540000014,None,161.88439239999934,161.88940159999947,161.88940159999947,161.88940159999947,164.98748559999967,space,3.0951758999999583,None,,,,,,,,,,,,,,,,,,,,,,,,,,,,,,,,,,,,,,,sub103,percept,6,0,2024-08-07_15h04.46.095,ASRT_percept,2023.2.3,141.15601126901132,2024-08-07 15h05.17.327586 +0800,
,2,180,3,1,red,sequences/sub103_practice_sequence_00.csv,,,,,,,,,,,0,0,0,0,0,0,0,61,,,,,,,,,,,,,,,,,,,,,166.02453239999977,,,,,,,,,,165.00610489999963,165.00964979999935,165.99400369999967,166.01951629999985,166.02453239999977,166.02453239999977,166.2298891999999,166.66267999999945,1,1,0.6310087000001658,None,166.6636724,166.6696226999993,166.6696226999993,166.8756972000001,167.08369119999952,167.07852529999946,167.07857160000003,167.08369119999952,167.77981939999972,167.78519340000003,,,,,,,,,,,,,,,,,,,,,,,,,,,,,,,,,,,,,,,,,,,,,,,,,,,,,,,sub103,percept,6,0,2024-08-07_15h04.46.095,ASRT_percept,2023.2.3,141.15601126901132,2024-08-07 15h05.17.327586 +0800,
,1,90,2,2,red,sequences/sub103_practice_sequence_00.csv,,,,,,,,,,,0,0,0,0,0,1,1,82,,,,,,,,,,,,,,,,,,,,,167.78519340000003,,,,,,,,,,,,,167.78055789999962,167.78519340000003,167.78519340000003,167.98802579999938,168.42572259999997,2,1,0.6334639000006064,None,168.42648889999964,168.43127819999972,168.43127819999972,168.63938359999975,168.84772819999944,168.84248549999938,168.8425327999994,168.84772819999944,169.54301759999998,,,,,,,,,,,,,,,,,,,,,,,,,,,,,,,,,,,,,,,,,,,,,,,,,,,,,,,,sub103,percept,6,0,2024-08-07_15h04.46.095,ASRT_percept,2023.2.3,141.15601126901132,2024-08-07 15h05.17.327586 +0800,
,3,270,0,4,red,sequences/sub103_practice_sequence_00.csv,,,,,,,,,,,0,0,0,0,0,2,2,4,,,,,,,,,,,,,,,,,,,,,169.55047389999982,,,,,,,,,,,,,169.54357399999935,169.55047389999982,169.55047389999982,169.75028119999934,169.9892205999995,4,1,0.4346293999997215,None,169.98996629999965,169.99907239999993,169.99907239999993,170.20154039999943,170.41001270000015,170.40465779999977,170.40470370000003,170.41001270000015,171.10541039999953,,,,,,,,,,,,,,,,,,,,,,,,,,,,,,,,,,,,,,,,,,,,,,,,,,,,,,,,sub103,percept,6,0,2024-08-07_15h04.46.095,ASRT_percept,2023.2.3,141.15601126901132,2024-08-07 15h05.17.327586 +0800,
,2,180,3,1,red,sequences/sub103_practice_sequence_00.csv,,,,,,,,,,,0,0,0,0,0,3,3,10,,,,,,,,,,,,,,,,,,,,,171.1130089999997,,,,,,,,,,,,,171.1061522,171.1130089999997,171.1130089999997,171.31352499999957,171.56491199999982,1,1,0.4467789000000266,None,171.56553089999943,171.5702483999994,171.5702483999994,171.7780413999999,171.98660599999948,171.98094929999934,171.98099169999932,171.98660599999948,172.6817777999995,,,,,,,,,,,,,,,,,,,,,,,,,,,,,,,,,,,,,,,,,,,,,,,,,,,,,,,,sub103,percept,6,0,2024-08-07_15h04.46.095,ASRT_percept,2023.2.3,141.15601126901132,2024-08-07 15h05.17.327586 +0800,
,0,0,1,3,red,sequences/sub103_practice_sequence_00.csv,,,,,,,,,,,0,0,0,0,0,4,4,65,,,,,,,,,,,,,,,,,,,,,172.68769939999947,,,,,,,,,,,,,172.68226909999976,172.68769939999947,172.68769939999947,172.8893361999999,173.14083019999998,3,1,0.4472068999994008,None,173.14140569999927,173.14895559999968,173.14895559999968,173.35427549999986,173.5626599999996,173.55704569999943,173.55708030000005,173.5626599999996,174.25794459999997,,,,,,,,,,,,,,,,,,,,,,,,,,,,,,,,,,,,,,,,,,,,,,,,,,,,,,,,sub103,percept,6,0,2024-08-07_15h04.46.095,ASRT_percept,2023.2.3,141.15601126901132,2024-08-07 15h05.17.327586 +0800,
,3,270,0,4,red,sequences/sub103_practice_sequence_00.csv,,,,,,,,,,,0,0,0,0,0,5,5,27,,,,,,,,,,,,,,,,,,,,,174.26413049999974,,,,,,,,,,,,,174.25846790000014,174.26413049999974,174.26413049999974,174.4660428999996,174.93988569999965,4,1,0.6690167999995538,None,174.9407044999998,174.94601539999985,174.94601539999985,175.15481209999962,175.3611704999994,175.35567079999964,175.35571019999952,175.3611704999994,176.05637959999967,,,,,,,,,,,,,,,,,,,,,,,,,,,,,,,,,,,,,,,,,,,,,,,,,,,,,,,,sub103,percept,6,0,2024-08-07_15h04.46.095,ASRT_percept,2023.2.3,141.15601126901132,2024-08-07 15h05.17.327586 +0800,
,3,270,0,4,red,sequences/sub103_practice_sequence_00.csv,,,,,,,,,,,0,0,0,0,0,6,6,32,,,,,,,,,,,,,,,,,,,,,176.06266329999926,,,,,,,,,,,,,176.05723099999977,176.06266329999926,176.06266329999926,176.26402099999996,176.64219030000004,4,1,0.5714113000003636,None,176.64274769999975,176.6493415999994,176.6493415999994,176.85476669999935,177.0626156999997,177.05700939999952,177.05704979999973,177.0626156999997,177.75760399999945,,,,,,,,,,,,,,,,,,,,,,,,,,,,,,,,,,,,,,,,,,,,,,,,,,,,,,,,sub103,percept,6,0,2024-08-07_15h04.46.095,ASRT_percept,2023.2.3,141.15601126901132,2024-08-07 15h05.17.327586 +0800,
,1,90,2,2,red,sequences/sub103_practice_sequence_00.csv,,,,,,,,,,,0,0,0,0,0,7,7,50,,,,,,,,,,,,,,,,,,,,,177.76477149999937,,,,,,,,,,,,,177.7582849999999,177.76477149999937,177.76477149999937,177.96552429999974,178.37155529999927,2,1,0.6041983999994045,None,178.37209259999963,178.37751149999986,178.37751149999986,178.58366990000013,178.79189309999947,178.78672329999972,178.7867652999994,178.79189309999947,179.48763640000016,179.4937943999994,,,,,,,,,,,,,,,,,,,,,,,,,,,,,,,,,,,,,,,,,,,,,,,,,,,,,,,sub103,percept,6,0,2024-08-07_15h04.46.095,ASRT_percept,2023.2.3,141.15601126901132,2024-08-07 15h05.17.327586 +0800,
,1,90,2,2,red,sequences/sub103_practice_sequence_00.csv,,,,,,,,,,,0,0,0,0,0,8,8,11,,,,,,,,,,,,,,,,,,,,,179.4937943999994,,,,,,,,,,,,,179.48812409999937,179.4937943999994,179.4937943999994,179.69450469999992,180.07143599999927,2,1,0.5730692999995881,None,180.0720722999995,180.0773492999997,180.0773492999997,180.28505099999984,180.4931061999996,180.4874977999998,180.48753619999934,180.4931061999996,181.1883429999998,,,,,,,,,,,,,,,,,,,,,,,,,,,,,,,,,,,,,,,,,,,,,,,,,,,,,,,,sub103,percept,6,0,2024-08-07_15h04.46.095,ASRT_percept,2023.2.3,141.15601126901132,2024-08-07 15h05.17.327586 +0800,
,2,180,3,1,red,sequences/sub103_practice_sequence_00.csv,,,,,,,,,,,0,0,0,0,0,9,9,42,,,,,,,,,,,,,,,,,,,,,181.19451479999952,,,,,,,,,,,,,181.18894249999994,181.19451479999952,181.19451479999952,181.3959466999995,181.7734021999995,1,1,0.5719296999996004,None,181.77408109999942,181.78139239999928,181.78139239999928,181.98644449999938,182.1950466999997,182.18824219999988,182.18827220000003,182.1950466999997,182.88933499999985,,,,,,,,,,,,,,,,,,,,,,,,,,,,,,,,,,,,,,,,,,,,,,,,,,,,,,,,sub103,percept,6,0,2024-08-07_15h04.46.095,ASRT_percept,2023.2.3,141.15601126901132,2024-08-07 15h05.17.327586 +0800,
,0,0,1,3,red,sequences/sub103_practice_sequence_00.csv,,,,,,,,,,,0,0,0,0,0,10,10,40,,,,,,,,,,,,,,,,,,,,,182.89584399999967,,,,,,,,,,,,,182.88987579999957,182.89584399999967,182.89584399999967,183.09730499999932,183.4051075999996,3,1,0.5069422999995368,None,183.40567779999947,183.41182209999988,183.41182209999988,183.61802850000004,183.82704849999936,183.8212880000001,183.82132849999925,183.82704849999936,184.5222473999993,184.5281156000001,,,,,,,,,,,,,,,,,,,,,,,,,,,,,,,,,,,,,,,,,,,,,,,,,,,,,,,sub103,percept,6,0,2024-08-07_15h04.46.095,ASRT_percept,2023.2.3,141.15601126901132,2024-08-07 15h05.17.327586 +0800,
,3,270,0,4,red,sequences/sub103_practice_sequence_00.csv,,,,,,,,,,,0,0,0,0,0,11,11,69,,,,,,,,,,,,,,,,,,,,,184.5281156000001,,,,,,,,,,,,,184.52290059999996,184.5281156000001,184.5281156000001,184.72971249999955,185.0188731999997,4,1,0.4867952000004152,None,185.01944339999955,185.0254242000001,185.0254242000001,185.22963869999967,185.43774489999942,185.43158429999949,185.4316203999997,185.43774489999942,186.13270759999978,,,,,,,,,,,,,,,,,,,,,,,,,,,,,,,,,,,,,,,,,,,,,,,,,,,,,,,,sub103,percept,6,0,2024-08-07_15h04.46.095,ASRT_percept,2023.2.3,141.15601126901132,2024-08-07 15h05.17.327586 +0800,
,3,270,0,4,red,sequences/sub103_practice_sequence_00.csv,,,,,,,,,,,0,0,0,0,0,12,12,73,,,,,,,,,,,,,,,,,,,,,186.14000249999935,,,,,,,,,,,,,186.13346189999993,186.14000249999935,186.14000249999935,186.34069980000004,186.64153519999945,4,1,0.49815250000028755,None,186.64211999999952,186.64892710000004,186.64892710000004,186.85409889999937,187.06246219999957,187.05718029999935,187.05722569999944,187.06246219999957,187.75736289999986,,,,,,,,,,,,,,,,,,,,,,,,,,,,,,,,,,,,,,,,,,,,,,,,,,,,,,,,sub103,percept,6,0,2024-08-07_15h04.46.095,ASRT_percept,2023.2.3,141.15601126901132,2024-08-07 15h05.17.327586 +0800,
,0,0,1,3,red,sequences/sub103_practice_sequence_00.csv,,,,,,,,,,,0,0,0,0,0,13,13,30,,,,,,,,,,,,,,,,,,,,,187.76423149999937,,,,,,,,,,,,,187.75794809999934,187.76423149999937,187.76423149999937,187.96549629999936,188.20174339999994,3,1,0.4320616999993945,None,188.20220029999928,188.20780680000007,188.20780680000007,188.4170226999995,188.62526079999952,188.6196675000001,188.61971499999981,188.62526079999952,189.32041709999976,,,,,,,,,,,,,,,,,,,,,,,,,,,,,,,,,,,,,,,,,,,,,,,,,,,,,,,,sub103,percept,6,0,2024-08-07_15h04.46.095,ASRT_percept,2023.2.3,141.15601126901132,2024-08-07 15h05.17.327586 +0800,
,1,90,2,2,red,sequences/sub103_practice_sequence_00.csv,,,,,,,,,,,0,0,0,0,0,14,14,81,,,,,,,,,,,,,,,,,,,,,189.3263538000001,,,,,,,,,,,,,189.3210339999996,189.3263538000001,189.3263538000001,189.52797069999997,189.71729539999978,2,1,0.38452700000016193,None,189.7179661,189.72430819999954,189.72430819999954,189.93048779999936,190.13910570000007,190.1338513999999,190.13390199999958,190.13910570000007,190.8344518999993,190.84018279999964,,,,,,,,,,,,,,,,,,,,,,,,,,,,,,,,,,,,,,,,,,,,,,,,,,,,,,,sub103,percept,6,0,2024-08-07_15h04.46.095,ASRT_percept,2023.2.3,141.15601126901132,2024-08-07 15h05.17.327586 +0800,
,2,180,3,1,red,sequences/sub103_practice_sequence_00.csv,,,,,,,,,,,0,0,0,0,0,15,15,48,,,,,,,,,,,,,,,,,,,,,190.84018279999964,,,,,,,,,,,,,190.83527679999952,190.84018279999964,190.84018279999964,191.04191629999968,191.32128909999938,1,1,0.47757820000060747,None,191.32185179999942,191.32629219999944,191.32629219999944,191.53471679999984,191.74334409999938,191.73750459999974,191.7375431999999,191.74334409999938,192.43781619999936,,,,,,,,,,,,,,,,,,,,,,,,,,,,,,,,,,,,,,,,,,,,,,,,,,,,,,,,sub103,percept,6,0,2024-08-07_15h04.46.095,ASRT_percept,2023.2.3,141.15601126901132,2024-08-07 15h05.17.327586 +0800,
,1,90,2,2,red,sequences/sub103_practice_sequence_00.csv,,,,,,,,,,,0,0,0,0,0,16,16,55,,,,,,,,,,,,,,,,,,,,,192.44500629999948,,,,,,,,,,,,,192.43845939999937,192.44500629999948,192.44500629999948,192.64567720000014,193.08603409999978,2,1,0.6339976999997816,None,193.08691829999952,193.09290059999967,193.09290059999967,193.2986078999993,193.50702,193.50068999999985,193.5007246999994,193.50702,194.2016623999998,,,,,,,,,,,,,,,,,,,,,,,,,,,,,,,,,,,,,,,,,,,,,,,,,,,,,,,,sub103,percept,6,0,2024-08-07_15h04.46.095,ASRT_percept,2023.2.3,141.15601126901132,2024-08-07 15h05.17.327586 +0800,
,1,90,2,2,red,sequences/sub103_practice_sequence_00.csv,,,,,,,,,,,0,0,0,0,0,17,17,63,,,,,,,,,,,,,,,,,,,,,194.20825179999974,,,,,,,,,,,,,194.20230769999944,194.20825179999974,194.20825179999974,194.40954609999972,194.72503229999984,2,1,0.5131289000000834,None,194.72566180000013,194.73277179999968,194.73277179999968,194.9375087999997,195.14568879999933,195.1396152999996,195.1396404999996,195.14568879999933,195.84081999999944,,,,,,,,,,,,,,,,,,,,,,,,,,,,,,,,,,,,,,,,,,,,,,,,,,,,,,,,sub103,percept,6,0,2024-08-07_15h04.46.095,ASRT_percept,2023.2.3,141.15601126901132,2024-08-07 15h05.17.327586 +0800,
,2,180,3,1,red,sequences/sub103_practice_sequence_00.csv,,,,,,,,,,,0,0,0,0,0,18,18,20,,,,,,,,,,,,,,,,,,,,,195.84772949999933,,,,,,,,,,,,,195.84157649999997,195.84772949999933,195.84772949999933,196.0484609999994,196.34961209999983,1,1,0.49522909999996045,None,196.35032199999932,196.3566407999997,196.3566407999997,196.5626403999995,196.77039869999953,196.76447469999948,196.76450679999925,196.77039869999953,197.4652612,,,,,,,,,,,,,,,,,,,,,,,,,,,,,,,,,,,,,,,,,,,,,,,,,,,,,,,,sub103,percept,6,0,2024-08-07_15h04.46.095,ASRT_percept,2023.2.3,141.15601126901132,2024-08-07 15h05.17.327586 +0800,
,1,90,2,2,red,sequences/sub103_practice_sequence_00.csv,,,,,,,,,,,0,0,0,0,0,19,19,80,,,,,,,,,,,,,,,,,,,,,197.47223769999982,,,,,,,,,,,,,197.46595689999958,197.47223769999982,197.47223769999982,197.67353659999935,198.22462659999928,2,1,0.7488208000004306,None,198.22527769999942,198.23124860000007,198.23124860000007,198.43780719999995,198.64565479999965,198.6396162000001,198.63965539999936,198.64565479999965,199.34051249999993,,,,,,,,,,,,,,,,,,,,,,,,,,,,,,,,,,,,,,,,,,,,,,,,,,,,,,,,sub103,percept,6,0,2024-08-07_15h04.46.095,ASRT_percept,2023.2.3,141.15601126901132,2024-08-07 15h05.17.327586 +0800,
,1,90,2,2,red,sequences/sub103_practice_sequence_00.csv,,,,,,,,,,,0,0,0,0,0,20,20,58,,,,,,,,,,,,,,,,,,,,,199.3473768999993,,,,,,,,,,,,,199.3410602999993,199.3473768999993,199.3473768999993,199.54841849999957,199.79513099999986,2,1,0.4439633000001777,None,199.7957237999999,199.80073439999978,199.80073439999978,200.00691689999985,200.2148999000001,200.20950409999932,200.20954470000015,200.2148999000001,200.90973789999953,,,,,,,,,,,,,,,,,,,,,,,,,,,,,,,,,,,,,,,,,,,,,,,,,,,,,,,,sub103,percept,6,0,2024-08-07_15h04.46.095,ASRT_percept,2023.2.3,141.15601126901132,2024-08-07 15h05.17.327586 +0800,
,1,90,2,2,red,sequences/sub103_practice_sequence_00.csv,,,,,,,,,,,0,0,0,0,0,21,21,53,,,,,,,,,,,,,,,,,,,,,200.9172123999997,,,,,,,,,,,,,200.91063510000004,200.9172123999997,200.9172123999997,201.1180746,201.3571439999996,2,1,0.43703760000062175,None,201.35769329999948,201.36286719999953,201.36286719999953,201.56950869999946,201.7775504000001,201.77204449999954,201.77209099999982,201.7775504000001,202.4728869999999,,,,,,,,,,,,,,,,,,,,,,,,,,,,,,,,,,,,,,,,,,,,,,,,,,,,,,,,sub103,percept,6,0,2024-08-07_15h04.46.095,ASRT_percept,2023.2.3,141.15601126901132,2024-08-07 15h05.17.327586 +0800,
,1,90,2,2,red,sequences/sub103_practice_sequence_00.csv,,,,,,,,,,,0,0,0,0,0,22,22,71,,,,,,,,,,,,,,,,,,,,,202.4788964999998,,,,,,,,,,,,,202.47350149999966,202.4788964999998,202.4788964999998,202.6806788999993,202.87089549999928,2,1,0.38540610000018205,None,202.87180119999994,202.8785852000001,202.8785852000001,203.08326979999947,203.29145710000012,203.28572369999983,203.28576559999965,203.29145710000012,203.9861135000001,,,,,,,,,,,,,,,,,,,,,,,,,,,,,,,,,,,,,,,,,,,,,,,,,,,,,,,,sub103,percept,6,0,2024-08-07_15h04.46.095,ASRT_percept,2023.2.3,141.15601126901132,2024-08-07 15h05.17.327586 +0800,
,3,270,0,4,red,sequences/sub103_practice_sequence_00.csv,,,,,,,,,,,0,0,0,0,0,23,23,76,,,,,,,,,,,,,,,,,,,,,203.99292460000015,,,,,,,,,,,,,203.98678459999974,203.99292460000015,203.99292460000015,204.1946584999996,204.48178430000007,4,1,0.4855188999999882,None,204.4826253000001,204.48813229999996,204.48813229999996,204.6944999999996,204.9027333999993,204.8969275999998,204.89697049999995,204.9027333999993,205.59721029999946,,,,,,,,,,,,,,,,,,,,,,,,,,,,,,,,,,,,,,,,,,,,,,,,,,,,,,,,sub103,percept,6,0,2024-08-07_15h04.46.095,ASRT_percept,2023.2.3,141.15601126901132,2024-08-07 15h05.17.327586 +0800,
,2,180,3,1,red,sequences/sub103_practice_sequence_00.csv,,,,,,,,,,,0,0,0,0,0,24,24,70,,,,,,,,,,,,,,,,,,,,,205.6039164999993,,,,,,,,,,,,,205.59773869999935,205.6039164999993,205.6039164999993,205.80600640000011,206.1283227999993,1,1,0.5160760999997365,None,206.12909029999992,206.13870979999956,206.13870979999956,206.33976059999986,206.54881789999945,206.5439295999995,206.54397530000006,206.54881789999945,207.24412419999953,207.25122349999947,,,,,,,,,,,,,,,,,,,,,,,,,,,,,,,,,,,,,,,,,,,,,,,,,,,,,,,sub103,percept,6,0,2024-08-07_15h04.46.095,ASRT_percept,2023.2.3,141.15601126901132,2024-08-07 15h05.17.327586 +0800,
,2,180,3,1,red,sequences/sub103_practice_sequence_00.csv,,,,,,,,,,,0,0,0,0,0,25,25,2,,,,,,,,,,,,,,,,,,,,,207.25122349999947,,,,,,,,,,,,,207.24472349999996,207.25122349999947,207.25122349999947,207.45083319999958,207.65513199999987,1,1,0.39584949999971286,None,207.65591179999956,207.66187119999995,207.66187119999995,207.8678516,208.07616039999994,208.07016309999926,208.07019859999946,208.07616039999994,208.7708978999999,,,,,,,,,,,,,,,,,,,,,,,,,,,,,,,,,,,,,,,,,,,,,,,,,,,,,,,,sub103,percept,6,0,2024-08-07_15h04.46.095,ASRT_percept,2023.2.3,141.15601126901132,2024-08-07 15h05.17.327586 +0800,
,2,180,3,1,red,sequences/sub103_practice_sequence_00.csv,,,,,,,,,,,0,0,0,0,0,26,26,43,,,,,,,,,,,,,,,,,,,,,208.77723419999984,,,,,,,,,,,,,208.77150449999954,208.77723419999984,208.77723419999984,208.97932649999984,209.1893270999999,1,1,0.40470170000025973,None,209.19003929999963,209.19584209999994,209.19584209999994,209.40274299999965,209.61089110000012,209.60533419999956,209.6053777999996,209.61089110000012,210.30721809999977,,,,,,,,,,,,,,,,,,,,,,,,,,,,,,,,,,,,,,,,,,,,,,,,,,,,,,,,sub103,percept,6,0,2024-08-07_15h04.46.095,ASRT_percept,2023.2.3,141.15601126901132,2024-08-07 15h05.17.327586 +0800,
,3,270,0,4,red,sequences/sub103_practice_sequence_00.csv,,,,,,,,,,,0,0,0,0,0,27,27,19,,,,,,,,,,,,,,,,,,,,,210.31804049999937,,,,,,,,,,,,,210.30808359999992,210.31804049999937,210.31804049999937,210.52112940000006,210.76216739999927,4,1,0.44013489999997546,None,210.76299440000003,210.77231459999985,210.77231459999985,210.9715983999995,211.18147099999987,211.17510409999977,211.17516279999927,211.18147099999987,211.87606179999966,211.88277339999968,,,,,,,,,,,,,,,,,,,,,,,,,,,,,,,,,,,,,,,,,,,,,,,,,,,,,,,sub103,percept,6,0,2024-08-07_15h04.46.095,ASRT_percept,2023.2.3,141.15601126901132,2024-08-07 15h05.17.327586 +0800,
,2,180,3,1,red,sequences/sub103_practice_sequence_00.csv,,,,,,,,,,,0,0,0,0,0,28,28,23,,,,,,,,,,,,,,,,,,,,,211.88277339999968,,,,,,,,,,,,,211.8767782999994,211.88277339999968,211.88277339999968,212.0834335999998,212.35120219999953,1,1,0.4635347000003094,None,212.35220389999995,212.3610877000001,212.3610877000001,212.5621173999998,212.77092989999983,212.7656989999996,212.7657577,212.77092989999983,213.46530749999965,213.47221079999963,,,,,,,,,,,,,,,,,,,,,,,,,,,,,,,,,,,,,,,,,,,,,,,,,,,,,,,sub103,percept,6,0,2024-08-07_15h04.46.095,ASRT_percept,2023.2.3,141.15601126901132,2024-08-07 15h05.17.327586 +0800,
,0,0,1,3,red,sequences/sub103_practice_sequence_00.csv,,,,,,,,,,,0,0,0,0,0,29,29,75,,,,,,,,,,,,,,,,,,,,,213.47221079999963,,,,,,,,,,,,,213.46584279999934,213.47221079999963,213.47221079999963,213.67313000000013,214.0032556999995,3,1,0.5268882000000303,None,214.00394979999965,214.01087800000005,214.01087800000005,214.2150103999993,214.42353149999963,214.41798440000002,214.41803759999948,214.42353149999963,215.1209289999997,,,,,,,,,,,,,,,,,,,,,,,,,,,,,,,,,,,,,,,,,,,,,,,,,,,,,,,,sub103,percept,6,0,2024-08-07_15h04.46.095,ASRT_percept,2023.2.3,141.15601126901132,2024-08-07 15h05.17.327586 +0800,
,2,180,3,1,red,sequences/sub103_practice_sequence_00.csv,,,,,,,,,,,0,0,0,0,0,30,30,49,,,,,,,,,,,,,,,,,,,,,215.12592270000005,,,,,,,,,,,,,215.1214145999993,215.12592270000005,215.12592270000005,215.32610870000008,215.6142417000001,1,1,0.4827202999995279,None,215.6150502999999,215.62391899999966,215.62391899999966,215.8259920999999,216.03413779999937,216.02889959999993,216.02894209999977,216.03413779999937,216.7296880999993,216.73635179999928,,,,,,,,,,,,,,,,,,,,,,,,,,,,,,,,,,,,,,,,,,,,,,,,,,,,,,,sub103,percept,6,0,2024-08-07_15h04.46.095,ASRT_percept,2023.2.3,141.15601126901132,2024-08-07 15h05.17.327586 +0800,
,2,180,3,1,red,sequences/sub103_practice_sequence_00.csv,,,,,,,,,,,0,0,0,0,0,31,31,18,,,,,,,,,,,,,,,,,,,,,216.73635179999928,,,,,,,,,,,,,216.73034009999992,216.73635179999928,216.73635179999928,216.93734080000013,217.20440150000013,1,1,0.45884290000049077,None,217.20493159999933,217.21179200000006,217.21179200000006,217.41980739999963,217.62852759999987,217.6200891999997,217.6201556999995,217.62852759999987,218.32941169999958,,,,,,,,,,,,,,,,,,,,,,,,,,,,,,,,,,,,,,,,,,,,,,,,,,,,,,,,sub103,percept,6,0,2024-08-07_15h04.46.095,ASRT_percept,2023.2.3,141.15601126901132,2024-08-07 15h05.17.327586 +0800,
,1,90,2,2,red,sequences/sub103_practice_sequence_00.csv,,,,,,,,,,,0,0,0,0,0,32,32,33,,,,,,,,,,,,,,,,,,,,,218.34253939999962,,,,,,,,,,,,,218.33056739999938,218.34253939999962,218.34253939999962,218.54028859999926,218.8504210000001,4,0,0.4997958000003564,None,218.85127269999975,218.86280910000005,218.86280910000005,219.15605589999996,219.36042009999983,219.3541792999995,219.3542134999998,219.36042009999983,220.05574290000004,,,,,,,,,,,,,,,,,,,,,,,,,,,,,,,,,,,,,,,,,,,,,,,,,,,,,,,,sub103,percept,6,0,2024-08-07_15h04.46.095,ASRT_percept,2023.2.3,141.15601126901132,2024-08-07 15h05.17.327586 +0800,
,0,0,1,3,red,sequences/sub103_practice_sequence_00.csv,,,,,,,,,,,0,0,0,0,0,33,33,77,,,,,,,,,,,,,,,,,,,,,220.06270199999926,,,,,,,,,,,,,220.05645469999945,220.06270199999926,220.06270199999926,220.26678769999944,220.54896250000002,3,1,0.48359049999999115,None,220.54923739999958,220.5552749999997,220.5552749999997,220.7631492999999,220.9716798999998,220.96581519999927,220.96586469999966,220.9716798999998,221.66679139999997,,,,,,,,,,,,,,,,,,,,,,,,,,,,,,,,,,,,,,,,,,,,,,,,,,,,,,,,sub103,percept,6,0,2024-08-07_15h04.46.095,ASRT_percept,2023.2.3,141.15601126901132,2024-08-07 15h05.17.327586 +0800,
,0,0,1,3,red,sequences/sub103_practice_sequence_00.csv,,,,,,,,,,,0,0,0,0,0,34,34,59,,,,,,,,,,,,,,,,,,,,,221.6736375999999,,,,,,,,,,,,,221.66780599999947,221.6736375999999,221.6736375999999,221.87537249999968,222.29599999999937,3,1,0.618774300000041,None,222.29687879999983,222.30395539999972,222.30395539999972,222.5060227999993,222.71467549999943,222.7097503999994,222.70982229999936,222.71467549999943,223.4105915,223.42004739999993,,,,,,,,,,,,,,,,,,,,,,,,,,,,,,,,,,,,,,,,,,,,,,,,,,,,,,,sub103,percept,6,0,2024-08-07_15h04.46.095,ASRT_percept,2023.2.3,141.15601126901132,2024-08-07 15h05.17.327586 +0800,
,0,0,1,3,red,sequences/sub103_practice_sequence_00.csv,,,,,,,,,,,0,0,0,0,0,35,35,68,,,,,,,,,,,,,,,,,,,,,223.42004739999993,,,,,,,,,,,,,223.41162729999996,223.42004739999993,223.42004739999993,223.62459749999925,223.92202240000006,3,1,0.49762600000030943,None,223.9234545999998,223.93415509999977,223.93415509999977,224.13119109999934,224.34012669999993,224.3344557999999,224.33450679999987,224.34012669999993,225.03514929999983,225.04091919999973,,,,,,,,,,,,,,,,,,,,,,,,,,,,,,,,,,,,,,,,,,,,,,,,,,,,,,,sub103,percept,6,0,2024-08-07_15h04.46.095,ASRT_percept,2023.2.3,141.15601126901132,2024-08-07 15h05.17.327586 +0800,
,3,270,0,4,red,sequences/sub103_practice_sequence_00.csv,,,,,,,,,,,0,0,0,0,0,36,36,79,,,,,,,,,,,,,,,,,,,,,225.04091919999973,,,,,,,,,,,,,225.0359069999995,225.04091919999973,225.04091919999973,225.24249079999936,225.52960410000014,4,1,0.4846887000003335,None,225.53044729999965,225.53722089999974,225.53722089999974,225.74221260000013,225.95064989999992,225.94460900000013,225.94464729999982,225.95064989999992,226.64546029999929,,,,,,,,,,,,,,,,,,,,,,,,,,,,,,,,,,,,,,,,,,,,,,,,,,,,,,,,sub103,percept,6,0,2024-08-07_15h04.46.095,ASRT_percept,2023.2.3,141.15601126901132,2024-08-07 15h05.17.327586 +0800,
,3,270,0,4,red,sequences/sub103_practice_sequence_00.csv,,,,,,,,,,,0,0,0,0,0,37,37,60,,,,,,,,,,,,,,,,,,,,,226.65188880000005,,,,,,,,,,,,,226.64603139999963,226.65188880000005,226.65188880000005,226.85375229999954,227.1346638999994,4,1,0.4800953000003574,None,227.1353706,227.14103859999977,227.14103859999977,227.34671399999934,227.55499319999944,227.5493016999999,227.5493480999994,227.55499319999944,228.25003949999973,,,,,,,,,,,,,,,,,,,,,,,,,,,,,,,,,,,,,,,,,,,,,,,,,,,,,,,,sub103,percept,6,0,2024-08-07_15h04.46.095,ASRT_percept,2023.2.3,141.15601126901132,2024-08-07 15h05.17.327586 +0800,
,0,0,1,3,red,sequences/sub103_practice_sequence_00.csv,,,,,,,,,,,0,0,0,0,0,38,38,1,,,,,,,,,,,,,,,,,,,,,228.25983889999952,,,,,,,,,,,,,228.25093779999952,228.25983889999952,228.25983889999952,228.4645529999998,228.71059699999932,3,1,0.44341780000013387,None,228.71129159999964,228.71759099999963,228.71759099999963,228.92330399999992,229.1311812999993,229.12602629999947,229.12607750000006,229.1311812999993,229.82641090000016,,,,,,,,,,,,,,,,,,,,,,,,,,,,,,,,,,,,,,,,,,,,,,,,,,,,,,,,sub103,percept,6,0,2024-08-07_15h04.46.095,ASRT_percept,2023.2.3,141.15601126901132,2024-08-07 15h05.17.327586 +0800,
,1,90,2,2,red,sequences/sub103_practice_sequence_00.csv,,,,,,,,,,,0,0,0,0,0,39,39,78,,,,,,,,,,,,,,,,,,,,,229.83620109999993,,,,,,,,,,,,,229.82723600000008,229.83620109999993,229.83620109999993,230.04367599999932,230.21698399999968,2,1,0.37438449999990553,None,230.21782540000004,230.2244012000001,230.2244012000001,230.43013689999952,230.63845739999942,230.63268999999946,230.63273690000005,230.63845739999942,231.33339819999946,,,,,,,,,,,,,,,,,,,,,,,,,,,,,,,,,,,,,,,,,,,,,,,,,,,,,,,,sub103,percept,6,0,2024-08-07_15h04.46.095,ASRT_percept,2023.2.3,141.15601126901132,2024-08-07 15h05.17.327586 +0800,
,1,90,2,2,red,sequences/sub103_practice_sequence_00.csv,,,,,,,,,,,0,0,0,0,0,40,40,15,,,,,,,,,,,,,,,,,,,,,231.34168580000005,,,,,,,,,,,,,231.3341518999996,231.34168580000005,231.34168580000005,231.5413023000001,231.8588581999993,2,1,0.5069295999992391,None,231.8591037999995,231.86169789999985,231.86169789999985,232.06872269999985,232.27714389999983,232.2713774999993,232.2714234999994,232.27714389999983,232.97210059999998,,,,,,,,,,,,,,,,,,,,,,,,,,,,,,,,,,,,,,,,,,,,,,,,,,,,,,,,sub103,percept,6,0,2024-08-07_15h04.46.095,ASRT_percept,2023.2.3,141.15601126901132,2024-08-07 15h05.17.327586 +0800,
,0,0,1,3,red,sequences/sub103_practice_sequence_00.csv,,,,,,,,,,,0,0,0,0,0,41,41,12,,,,,,,,,,,,,,,,,,,,,232.97815639999953,,,,,,,,,,,,,232.97277529999974,232.97815639999953,232.97815639999953,233.17990049999935,233.49501580000015,3,1,0.5120677000004434,None,233.49570700000004,233.50192249999964,233.50192249999964,233.70953529999952,233.91603049999958,233.91026669999974,233.91030909999972,233.91603049999958,234.6117762999993,,,,,,,,,,,,,,,,,,,,,,,,,,,,,,,,,,,,,,,,,,,,,,,,,,,,,,,,sub103,percept,6,0,2024-08-07_15h04.46.095,ASRT_percept,2023.2.3,141.15601126901132,2024-08-07 15h05.17.327586 +0800,
,3,270,0,4,red,sequences/sub103_practice_sequence_00.csv,,,,,,,,,,,0,0,0,0,0,42,42,17,,,,,,,,,,,,,,,,,,,,,234.62047279999933,,,,,,,,,,,,,234.61258129999987,234.62047279999933,234.62047279999933,234.82550179999998,235.07217769999988,4,1,0.44884390000061103,None,235.0729612999994,235.08203219999996,235.08203219999996,235.28425939999943,235.49202909999985,235.4859833999999,235.4860208,235.49202909999985,236.18692199999987,,,,,,,,,,,,,,,,,,,,,,,,,,,,,,,,,,,,,,,,,,,,,,,,,,,,,,,,sub103,percept,6,0,2024-08-07_15h04.46.095,ASRT_percept,2023.2.3,141.15601126901132,2024-08-07 15h05.17.327586 +0800,
,0,0,1,3,red,sequences/sub103_practice_sequence_00.csv,,,,,,,,,,,0,0,0,0,0,43,43,3,,,,,,,,,,,,,,,,,,,,,236.19440529999974,,,,,,,,,,,,,236.18763690000014,236.19440529999974,236.19440529999974,236.39596139999958,236.59215629999926,3,1,0.3921217000006436,None,236.59303309999996,236.60022369999933,236.60022369999933,236.80498689999968,237.01300989999982,237.00726359999953,237.00730449999992,237.01300989999982,237.70771909999985,,,,,,,,,,,,,,,,,,,,,,,,,,,,,,,,,,,,,,,,,,,,,,,,,,,,,,,,sub103,percept,6,0,2024-08-07_15h04.46.095,ASRT_percept,2023.2.3,141.15601126901132,2024-08-07 15h05.17.327586 +0800,
,1,90,2,2,red,sequences/sub103_practice_sequence_00.csv,,,,,,,,,,,0,0,0,0,0,44,44,84,,,,,,,,,,,,,,,,,,,,,237.71403740000005,,,,,,,,,,,,,237.7086752999994,237.71403740000005,237.71403740000005,237.9163024999998,238.14079409999977,2,1,0.4204823000000033,None,238.14160730000003,238.14801869999974,238.14801869999974,238.3525424999998,238.56309379999948,238.55742079999982,238.55747319999955,238.56309379999948,239.2576885999997,239.26677149999978,,,,,,,,,,,,,,,,,,,,,,,,,,,,,,,,,,,,,,,,,,,,,,,,,,,,,,,sub103,percept,6,0,2024-08-07_15h04.46.095,ASRT_percept,2023.2.3,141.15601126901132,2024-08-07 15h05.17.327586 +0800,
,0,0,1,3,red,sequences/sub103_practice_sequence_00.csv,,,,,,,,,,,0,0,0,0,0,45,45,8,,,,,,,,,,,,,,,,,,,,,239.26677149999978,,,,,,,,,,,,,239.25861739999982,239.26677149999978,239.26677149999978,239.4639189999998,239.66930950000005,3,1,0.3950057000001834,None,239.6701667999996,239.6803491999999,239.6803491999999,239.88112139999976,240.08927519999997,240.08410689999982,240.08415849999983,240.08927519999997,240.78476989999945,240.79169079999974,,,,,,,,,,,,,,,,,,,,,,,,,,,,,,,,,,,,,,,,,,,,,,,,,,,,,,,sub103,percept,6,0,2024-08-07_15h04.46.095,ASRT_percept,2023.2.3,141.15601126901132,2024-08-07 15h05.17.327586 +0800,
,0,0,1,3,red,sequences/sub103_practice_sequence_00.csv,,,,,,,,,,,0,0,0,0,0,46,46,31,,,,,,,,,,,,,,,,,,,,,240.79169079999974,,,,,,,,,,,,,240.78534799999943,240.79169079999974,240.79169079999974,240.99215039999945,241.22404039999947,3,1,0.4261919999999009,None,241.22485439999946,241.2316278999997,241.2316278999997,241.43645689999994,241.6468122999995,241.64091879999978,241.64098449999983,241.6468122999995,242.3410989999993,242.3491213999996,,,,,,,,,,,,,,,,,,,,,,,,,,,,,,,,,,,,,,,,,,,,,,,,,,,,,,,sub103,percept,6,0,2024-08-07_15h04.46.095,ASRT_percept,2023.2.3,141.15601126901132,2024-08-07 15h05.17.327586 +0800,
,1,90,2,2,red,sequences/sub103_practice_sequence_00.csv,,,,,,,,,,,0,0,0,0,0,47,47,5,,,,,,,,,,,,,,,,,,,,,242.3491213999996,,,,,,,,,,,,,242.3420712999996,242.3491213999996,242.3491213999996,242.5550091999994,242.89053689999946,2,1,0.5347283000000971,None,242.8912491000001,242.89997099999982,242.89997099999982,243.10311739999997,243.31157829999938,243.30574559999968,243.30579339999986,243.31157829999938,244.00683599999957,,,,,,,,,,,,,,,,,,,,,,,,,,,,,,,,,,,,,,,,,,,,,,,,,,,,,,,,sub103,percept,6,0,2024-08-07_15h04.46.095,ASRT_percept,2023.2.3,141.15601126901132,2024-08-07 15h05.17.327586 +0800,
,2,180,3,1,red,sequences/sub103_practice_sequence_00.csv,,,,,,,,,,,0,0,0,0,0,48,48,22,,,,,,,,,,,,,,,,,,,,,244.01402179999968,,,,,,,,,,,,,244.00772890000007,244.01402179999968,244.01402179999968,244.21471740000015,244.7514369999999,1,1,0.734342600000673,None,244.75237070000003,244.75998769999933,244.75998769999933,244.9649485,245.17452929999945,245.16780629999994,245.1678650999993,245.17452929999945,245.86822099999972,245.8761201999996,,,,,,,,,,,,,,,,,,,,,,,,,,,,,,,,,,,,,,,,,,,,,,,,,,,,,,,sub103,percept,6,0,2024-08-07_15h04.46.095,ASRT_percept,2023.2.3,141.15601126901132,2024-08-07 15h05.17.327586 +0800,
,0,0,1,3,red,sequences/sub103_practice_sequence_00.csv,,,,,,,,,,,0,0,0,0,0,49,49,24,,,,,,,,,,,,,,,,,,,,,245.8761201999996,,,,,,,,,,,,,245.86887039999965,245.8761201999996,245.8761201999996,246.07582269999966,246.25246609999976,3,1,0.3732095000004847,None,246.2531530999995,246.2611778999999,246.2611778999999,246.46413679999932,246.67399690000002,246.6676526000001,246.66771280000012,246.67399690000002,247.36825210000006,247.37457799999993,,,,,,,,,,,,,,,,,,,,,,,,,,,,,,,,,,,,,,,,,,,,,,,,,,,,,,,sub103,percept,6,0,2024-08-07_15h04.46.095,ASRT_percept,2023.2.3,141.15601126901132,2024-08-07 15h05.17.327586 +0800,
,1,90,2,2,red,sequences/sub103_practice_sequence_00.csv,,,,,,,,,,,0,0,0,0,0,50,50,83,,,,,,,,,,,,,,,,,,,,,247.37457799999993,,,,,,,,,,,,,247.36899699999958,247.37457799999993,247.37457799999993,247.57562059999964,247.75115499999993,2,1,0.37217620000046736,None,247.75185299999976,247.76041299999997,247.76041299999997,247.96409359999961,248.17244019999998,248.1666341,248.1666808,248.17244019999998,248.86734199999955,,,,,,,,,,,,,,,,,,,,,,,,,,,,,,,,,,,,,,,,,,,,,,,,,,,,,,,,sub103,percept,6,0,2024-08-07_15h04.46.095,ASRT_percept,2023.2.3,141.15601126901132,2024-08-07 15h05.17.327586 +0800,
,2,180,3,1,red,sequences/sub103_practice_sequence_00.csv,,,,,,,,,,,0,0,0,0,0,51,51,72,,,,,,,,,,,,,,,,,,,,,248.87377939999988,,,,,,,,,,,,,248.86798399999952,248.87377939999988,248.87377939999988,249.07536589999927,249.3510295999995,1,1,0.47339689999989787,None,249.35181009999997,249.35907940000016,249.35907940000016,249.5614716,249.76951089999966,249.76396789999944,249.76400119999926,249.76951089999966,250.46498729999985,,,,,,,,,,,,,,,,,,,,,,,,,,,,,,,,,,,,,,,,,,,,,,,,,,,,,,,,sub103,percept,6,0,2024-08-07_15h04.46.095,ASRT_percept,2023.2.3,141.15601126901132,2024-08-07 15h05.17.327586 +0800,
,2,180,3,1,red,sequences/sub103_practice_sequence_00.csv,,,,,,,,,,,0,0,0,0,0,52,52,34,,,,,,,,,,,,,,,,,,,,,250.47205059999942,,,,,,,,,,,,,250.4657363999995,250.47205059999942,250.47205059999942,250.6725351999994,250.87663429999975,1,1,0.3982380000006742,None,250.87734369999998,250.88771759999963,250.88771759999963,251.08997670000008,251.2976294,251.29205479999928,251.29210729999977,251.2976294,251.99332640000011,251.99993839999934,,,,,,,,,,,,,,,,,,,,,,,,,,,,,,,,,,,,,,,,,,,,,,,,,,,,,,,sub103,percept,6,0,2024-08-07_15h04.46.095,ASRT_percept,2023.2.3,141.15601126901132,2024-08-07 15h05.17.327586 +0800,
,2,180,3,1,red,sequences/sub103_practice_sequence_00.csv,,,,,,,,,,,0,0,0,0,0,53,53,47,,,,,,,,,,,,,,,,,,,,,251.99993839999934,,,,,,,,,,,,,251.99404349999986,251.99993839999934,251.99993839999934,252.20043029999943,252.45809649999956,1,1,0.44714289999956236,None,252.45906680000007,252.4648514999999,252.4648514999999,252.66573530000005,252.8738371999998,252.8679401999998,252.86798399999952,252.8738371999998,253.56822449999981,,,,,,,,,,,,,,,,,,,,,,,,,,,,,,,,,,,,,,,,,,,,,,,,,,,,,,,,sub103,percept,6,0,2024-08-07_15h04.46.095,ASRT_percept,2023.2.3,141.15601126901132,2024-08-07 15h05.17.327586 +0800,
,2,180,3,1,red,sequences/sub103_practice_sequence_00.csv,,,,,,,,,,,0,0,0,0,0,54,54,28,,,,,,,,,,,,,,,,,,,,,253.5747864999994,,,,,,,,,,,,,253.56887789999928,253.5747864999994,253.5747864999994,253.77636840000014,253.88354619999973,1,1,0.3048472000000402,None,253.88422449999962,253.88966579999942,253.88966579999942,254.09605379999994,254.30441749999954,254.29897589999928,254.2990224999994,254.30441749999954,254.9993756999993,,,,,,,,,,,,,,,,,,,,,,,,,,,,,,,,,,,,,,,,,,,,,,,,,,,,,,,,sub103,percept,6,0,2024-08-07_15h04.46.095,ASRT_percept,2023.2.3,141.15601126901132,2024-08-07 15h05.17.327586 +0800,
,2,180,3,1,red,sequences/sub103_practice_sequence_00.csv,,,,,,,,,,,0,0,0,0,0,55,55,26,,,,,,,,,,,,,,,,,,,,,255.00618889999987,,,,,,,,,,,,,255.00023389999933,255.00618889999987,255.00618889999987,255.20709720000013,255.32316189999983,1,1,0.31335560000025,None,255.32399720000012,255.33044399999926,255.33044399999926,255.53329209999993,255.7429691999996,255.7369205999994,255.73696829999972,255.7429691999996,256.4364397999998,256.4428557000001,,,,,,,,,,,,,,,,,,,,,,,,,,,,,,,,,,,,,,,,,,,,,,,,,,,,,,,sub103,percept,6,0,2024-08-07_15h04.46.095,ASRT_percept,2023.2.3,141.15601126901132,2024-08-07 15h05.17.327586 +0800,
,0,0,1,3,red,sequences/sub103_practice_sequence_00.csv,,,,,,,,,,,0,0,0,0,0,56,56,64,,,,,,,,,,,,,,,,,,,,,256.4428557000001,,,,,,,,,,,,,256.43704569999954,256.4428557000001,256.4428557000001,256.6450279999999,256.90556819999983,3,1,0.45968189999985043,None,256.90641289999985,256.9169088999997,256.9169088999997,257.1167624999998,257.3252877999994,257.31992979999995,257.31998119999935,257.3252877999994,258.0208294999993,258.03020169999945,,,,,,,,,,,,,,,,,,,,,,,,,,,,,,,,,,,,,,,,,,,,,,,,,,,,,,,sub103,percept,6,0,2024-08-07_15h04.46.095,ASRT_percept,2023.2.3,141.15601126901132,2024-08-07 15h05.17.327586 +0800,
,3,270,0,4,red,sequences/sub103_practice_sequence_00.csv,,,,,,,,,,,0,0,0,0,0,57,57,41,,,,,,,,,,,,,,,,,,,,,258.03020169999945,,,,,,,,,,,,,258.02164229999926,258.03020169999945,258.03020169999945,258.2352557999993,258.6148083999997,4,1,0.5799724999997125,None,258.6156299999993,258.62410199999977,258.62410199999977,258.8252032999999,259.0334841999993,259.0279522999999,259.02799830000004,259.0334841999993,259.7294836000001,,,,,,,,,,,,,,,,,,,,,,,,,,,,,,,,,,,,,,,,,,,,,,,,,,,,,,,,sub103,percept,6,0,2024-08-07_15h04.46.095,ASRT_percept,2023.2.3,141.15601126901132,2024-08-07 15h05.17.327586 +0800,
,0,0,1,3,red,sequences/sub103_practice_sequence_00.csv,,,,,,,,,,,0,0,0,0,0,58,58,51,,,,,,,,,,,,,,,,,,,,,259.7369613999999,,,,,,,,,,,,,259.73016370000005,259.7369613999999,259.7369613999999,259.9430532999995,260.2161626999996,3,1,0.47475499999927706,None,260.2167945000001,260.22408579999956,260.22408579999956,260.4296908999995,260.6388320999995,260.63279559999955,260.6328563999996,260.6388320999995,261.33362599999964,,,,,,,,,,,,,,,,,,,,,,,,,,,,,,,,,,,,,,,,,,,,,,,,,,,,,,,,sub103,percept,6,0,2024-08-07_15h04.46.095,ASRT_percept,2023.2.3,141.15601126901132,2024-08-07 15h05.17.327586 +0800,
,1,90,2,2,red,sequences/sub103_practice_sequence_00.csv,,,,,,,,,,,0,0,0,0,0,59,59,67,,,,,,,,,,,,,,,,,,,,,261.3419174999999,,,,,,,,,,,,,261.3345727999995,261.3419174999999,261.3419174999999,261.54715379999925,261.73790409999947,2,1,0.38099849999980506,None,261.73906199999965,261.7472694999997,261.7472694999997,261.9442769999996,262.15208170000005,262.1459410999996,262.14598320000005,262.15208170000005,262.84681479999927,262.8521860999999,,,,,,,,,,,,,,,,,,,,,,,,,,,,,,,,,,,,,,,,,,,,,,,,,,,,,,,sub103,percept,6,0,2024-08-07_15h04.46.095,ASRT_percept,2023.2.3,141.15601126901132,2024-08-07 15h05.17.327586 +0800,
,3,270,0,4,red,sequences/sub103_practice_sequence_00.csv,,,,,,,,,,,0,0,0,0,0,60,60,35,,,,,,,,,,,,,,,,,,,,,262.8521860999999,,,,,,,,,,,,,262.84750729999996,262.8521860999999,262.8521860999999,263.0543024999997,263.2934166999994,4,1,0.43688529999963066,None,263.29427289999967,263.3000427999996,263.3000427999996,263.5059231999994,263.7149905999995,263.70806379999976,263.7081097,263.7149905999995,264.4088259,,,,,,,,,,,,,,,,,,,,,,,,,,,,,,,,,,,,,,,,,,,,,,,,,,,,,,,,sub103,percept,6,0,2024-08-07_15h04.46.095,ASRT_percept,2023.2.3,141.15601126901132,2024-08-07 15h05.17.327586 +0800,
,0,0,1,3,red,sequences/sub103_practice_sequence_00.csv,,,,,,,,,,,0,0,0,0,0,61,61,46,,,,,,,,,,,,,,,,,,,,,264.4155517999998,,,,,,,,,,,,,264.4094245999995,264.4155517999998,264.4155517999998,264.61676929999976,264.8620280999994,3,1,0.44318099999964033,None,264.8627292000001,264.8716756999993,264.8716756999993,265.0748929000001,265.28354450000006,265.2771868,265.27722879999965,265.28354450000006,265.9778630999999,,,,,,,,,,,,,,,,,,,,,,,,,,,,,,,,,,,,,,,,,,,,,,,,,,,,,,,,sub103,percept,6,0,2024-08-07_15h04.46.095,ASRT_percept,2023.2.3,141.15601126901132,2024-08-07 15h05.17.327586 +0800,
,1,90,2,2,red,sequences/sub103_practice_sequence_00.csv,,,,,,,,,,,0,0,0,0,0,62,62,16,,,,,,,,,,,,,,,,,,,,,265.9843697999995,,,,,,,,,,,,,265.97841889999927,265.9843697999995,265.9843697999995,266.18602289999944,266.50063539999974,2,1,0.5099570000002132,None,266.50152379999963,266.5093431999994,266.5093431999994,266.71402469999975,266.9219686999995,266.91597939999974,266.91601459999947,266.9219686999995,267.61709040000005,,,,,,,,,,,,,,,,,,,,,,,,,,,,,,,,,,,,,,,,,,,,,,,,,,,,,,,,sub103,percept,6,0,2024-08-07_15h04.46.095,ASRT_percept,2023.2.3,141.15601126901132,2024-08-07 15h05.17.327586 +0800,
,1,90,2,2,red,sequences/sub103_practice_sequence_00.csv,,,,,,,,,,,0,0,0,0,0,63,63,14,,,,,,,,,,,,,,,,,,,,,267.62296289999995,,,,,,,,,,,,,267.61780159999944,267.62296289999995,267.62296289999995,267.8247756999999,268.09044039999935,2,1,0.4604929999995875,None,268.0909713000001,268.0954820999996,268.0954820999996,268.30389449999984,268.51374869999927,268.50738459999957,268.5074317999997,268.51374869999927,269.2073993999993,269.2133656999995,,,,,,,,,,,,,,,,,,,,,,,,,,,,,,,,,,,,,,,,,,,,,,,,,,,,,,,sub103,percept,6,0,2024-08-07_15h04.46.095,ASRT_percept,2023.2.3,141.15601126901132,2024-08-07 15h05.17.327586 +0800,
,3,270,0,4,red,sequences/sub103_practice_sequence_00.csv,,,,,,,,,,,0,0,0,0,0,64,64,7,,,,,,,,,,,,,,,,,,,,,269.2133656999995,,,,,,,,,,,,,269.2079021999998,269.2133656999995,269.2133656999995,269.41509719999976,269.62637540000014,4,1,0.4052190000002156,None,269.6270967999999,269.63431779999974,269.63431779999974,269.83899609999935,270.0476142999996,270.04149509999934,270.0415478999994,270.0476142999996,270.74172240000007,,,,,,,,,,,,,,,,,,,,,,,,,,,,,,,,,,,,,,,,,,,,,,,,,,,,,,,,sub103,percept,6,0,2024-08-07_15h04.46.095,ASRT_percept,2023.2.3,141.15601126901132,2024-08-07 15h05.17.327586 +0800,
,1,90,2,2,red,sequences/sub103_practice_sequence_00.csv,,,,,,,,,,,0,0,0,0,0,65,65,54,,,,,,,,,,,,,,,,,,,,,270.74849899999936,,,,,,,,,,,,,270.74237339999945,270.74849899999936,270.74849899999936,270.9508449999994,271.2092998999997,2,1,0.45443299999988085,None,271.2101548999999,271.2181714999997,271.2181714999997,271.4221398999998,271.63423280000006,271.62658349999947,271.6266578999994,271.63423280000006,272.3333378999996,,,,,,,,,,,,,,,,,,,,,,,,,,,,,,,,,,,,,,,,,,,,,,,,,,,,,,,,sub103,percept,6,0,2024-08-07_15h04.46.095,ASRT_percept,2023.2.3,141.15601126901132,2024-08-07 15h05.17.327586 +0800,
,3,270,0,4,red,sequences/sub103_practice_sequence_00.csv,,,,,,,,,,,0,0,0,0,0,66,66,39,,,,,,,,,,,,,,,,,,,,,272.3433650999996,,,,,,,,,,,,,272.33437700000013,272.3433650999996,272.3433650999996,272.5470414000001,272.78791869999986,4,1,0.43542410000009113,None,272.7886129999997,272.79452859999947,272.79452859999947,272.9982322999995,273.2062066999997,273.2005922999997,273.2006309999997,273.2062066999997,273.90111549999983,,,,,,,,,,,,,,,,,,,,,,,,,,,,,,,,,,,,,,,,,,,,,,,,,,,,,,,,sub103,percept,6,0,2024-08-07_15h04.46.095,ASRT_percept,2023.2.3,141.15601126901132,2024-08-07 15h05.17.327586 +0800,
,3,270,0,4,red,sequences/sub103_practice_sequence_00.csv,,,,,,,,,,,0,0,0,0,0,67,67,13,,,,,,,,,,,,,,,,,,,,,273.9078792999999,,,,,,,,,,,,,273.90189699999974,273.9078792999999,273.9078792999999,274.10955490000015,274.3983567999994,4,1,0.4865153000000646,None,274.3990982999994,274.40585029999966,274.40585029999966,274.60935749999953,274.8174212999993,274.8123265999993,274.81236959999933,274.8174212999993,275.5125371999993,,,,,,,,,,,,,,,,,,,,,,,,,,,,,,,,,,,,,,,,,,,,,,,,,,,,,,,,sub103,percept,6,0,2024-08-07_15h04.46.095,ASRT_percept,2023.2.3,141.15601126901132,2024-08-07 15h05.17.327586 +0800,
,3,270,0,4,red,sequences/sub103_practice_sequence_00.csv,,,,,,,,,,,0,0,0,0,0,68,68,21,,,,,,,,,,,,,,,,,,,,,275.52008679999926,,,,,,,,,,,,,275.5134054,275.52008679999926,275.52008679999926,275.72056209999937,276.0286519000001,4,1,0.5020088000001124,None,276.02942899999925,276.03535139999985,276.03535139999985,276.2411433999996,276.45041330000004,276.4445167999993,276.4445621999994,276.45041330000004,277.14508059999935,277.15180209999926,,,,,,,,,,,,,,,,,,,,,,,,,,,,,,,,,,,,,,,,,,,,,,,,,,,,,,,sub103,percept,6,0,2024-08-07_15h04.46.095,ASRT_percept,2023.2.3,141.15601126901132,2024-08-07 15h05.17.327586 +0800,
,3,270,0,4,red,sequences/sub103_practice_sequence_00.csv,,,,,,,,,,,0,0,0,0,0,69,69,38,,,,,,,,,,,,,,,,,,,,,277.15180209999926,,,,,,,,,,,,,277.1457094999996,277.15180209999926,277.15180209999926,277.3522618999996,277.51589949999925,4,1,0.36071670000001177,None,277.51671819999956,277.52442379999957,277.52442379999957,277.7277274999997,277.9364093999993,277.9304191000001,277.9304708999998,277.9364093999993,278.6315492999993,278.6382606999996,,,,,,,,,,,,,,,,,,,,,,,,,,,,,,,,,,,,,,,,,,,,,,,,,,,,,,,sub103,percept,6,0,2024-08-07_15h04.46.095,ASRT_percept,2023.2.3,141.15601126901132,2024-08-07 15h05.17.327586 +0800,
,1,90,2,2,red,sequences/sub103_practice_sequence_00.csv,,,,,,,,,,,0,0,0,0,0,70,70,6,,,,,,,,,,,,,,,,,,,,,278.6382606999996,,,,,,,,,,,,,278.6323225999995,278.6382606999996,278.6382606999996,278.8387961999997,279.1334935999994,2,1,0.4892664999997578,None,279.13436269999966,279.14117350000015,279.14117350000015,279.3458252999999,279.5533709000001,279.54712819999986,279.54716219999955,279.5533709000001,280.2483433999996,,,,,,,,,,,,,,,,,,,,,,,,,,,,,,,,,,,,,,,,,,,,,,,,,,,,,,,,sub103,percept,6,0,2024-08-07_15h04.46.095,ASRT_percept,2023.2.3,141.15601126901132,2024-08-07 15h05.17.327586 +0800,
,3,270,0,4,red,sequences/sub103_practice_sequence_00.csv,,,,,,,,,,,0,0,0,0,0,71,71,36,,,,,,,,,,,,,,,,,,,,,280.2547168000001,,,,,,,,,,,,,280.24894140000015,280.2547168000001,280.2547168000001,280.45630919999985,280.77914259999943,4,1,0.5202570000001288,None,280.7799239999995,280.79050430000007,280.79050430000007,280.9911057999998,281.19920639999964,281.19395649999933,281.19400309999946,281.19920639999964,281.8952494999994,,,,,,,,,,,,,,,,,,,,,,,,,,,,,,,,,,,,,,,,,,,,,,,,,,,,,,,,sub103,percept,6,0,2024-08-07_15h04.46.095,ASRT_percept,2023.2.3,141.15601126901132,2024-08-07 15h05.17.327586 +0800,
,2,180,3,1,red,sequences/sub103_practice_sequence_00.csv,,,,,,,,,,,0,0,0,0,0,72,72,66,,,,,,,,,,,,,,,,,,,,,281.90200689999983,,,,,,,,,,,,,281.8960754999998,281.90200689999983,281.90200689999983,282.10237739999957,282.5358920999997,2,0,0.6274524000000383,None,282.53667249999944,282.5466465999998,282.5466465999998,282.74817039999925,282.9568243999993,282.95118529999945,282.95123799999965,282.9568243999993,283.6521560000001,283.6592461,,,,,,,,,,,,,,,,,,,,,,,,,,,,,,,,,,,,,,,,,,,,,,,,,,,,,,,sub103,percept,6,0,2024-08-07_15h04.46.095,ASRT_percept,2023.2.3,141.15601126901132,2024-08-07 15h05.17.327586 +0800,
,0,0,1,3,red,sequences/sub103_practice_sequence_00.csv,,,,,,,,,,,0,0,0,0,0,73,73,74,,,,,,,,,,,,,,,,,,,,,283.6592461,,,,,,,,,,,,,283.65298729999995,283.6592461,283.6592461,283.8588313999999,284.1810660000001,3,1,0.5163590000001932,None,284.18179469999995,284.19122229999994,284.19122229999994,284.39340619999984,284.60203849999925,284.59666299999935,284.5967050999998,284.60203849999925,285.2976529999996,285.3036495999995,,,,,,,,,,,,,,,,,,,,,,,,,,,,,,,,,,,,,,,,,,,,,,,,,,,,,,,sub103,percept,6,0,2024-08-07_15h04.46.095,ASRT_percept,2023.2.3,141.15601126901132,2024-08-07 15h05.17.327586 +0800,
,2,180,3,1,red,sequences/sub103_practice_sequence_00.csv,,,,,,,,,,,0,0,0,0,0,74,74,57,,,,,,,,,,,,,,,,,,,,,285.3036495999995,,,,,,,,,,,,,285.29834559999927,285.3036495999995,285.3036495999995,285.50577089999933,285.8675943999997,1,1,0.5597110999997312,None,285.86819599999944,285.87369839999974,285.87369839999974,286.0817780999996,286.29054199999973,286.2849003000001,286.2849513000001,286.29054199999973,286.9850902999997,,,,,,,,,,,,,,,,,,,,,,,,,,,,,,,,,,,,,,,,,,,,,,,,,,,,,,,,sub103,percept,6,0,2024-08-07_15h04.46.095,ASRT_percept,2023.2.3,141.15601126901132,2024-08-07 15h05.17.327586 +0800,
,1,90,2,2,red,sequences/sub103_practice_sequence_00.csv,,,,,,,,,,,0,0,0,0,0,75,75,9,,,,,,,,,,,,,,,,,,,,,286.99235489999955,,,,,,,,,,,,,286.98590989999957,286.99235489999955,286.99235489999955,287.19302340000013,287.45210659999975,3,0,0.4560679000005621,None,287.45283839999956,287.46228470000005,287.46228470000005,287.66450629999963,287.87268330000006,287.8672442999996,287.86729860000014,287.87268330000006,288.5680806999999,,,,,,,,,,,,,,,,,,,,,,,,,,,,,,,,,,,,,,,,,,,,,,,,,,,,,,,,sub103,percept,6,0,2024-08-07_15h04.46.095,ASRT_percept,2023.2.3,141.15601126901132,2024-08-07 15h05.17.327586 +0800,
