initial_random_seq_files,orientation_index,orientation_degrees,correct_answer_index,correct_answer_direction,arrow_color,practice_seq_files,learning_seq_files,motor_testing_seq_files,init_random_block.thisRepN,init_random_block.thisTrialN,init_random_block.thisN,init_random_block.thisIndex,init_random_trials.thisRepN,init_random_trials.thisTrialN,init_random_trials.thisN,init_random_trials.thisIndex,practice_blocks.thisRepN,practice_blocks.thisTrialN,practice_blocks.thisN,practice_blocks.thisIndex,practice_trials.thisRepN,practice_trials.thisTrialN,practice_trials.thisN,practice_trials.thisIndex,learning_trials.thisRepN,learning_trials.thisTrialN,learning_trials.thisN,learning_trials.thisIndex,learning_loop.thisRepN,learning_loop.thisTrialN,learning_loop.thisN,learning_loop.thisIndex,trials.thisRepN,trials.thisTrialN,trials.thisN,trials.thisIndex,motor_testing_trials.thisRepN,motor_testing_trials.thisTrialN,motor_testing_trials.thisN,motor_testing_trials.thisIndex,motor_testing_loop.thisRepN,motor_testing_loop.thisTrialN,motor_testing_loop.thisN,motor_testing_loop.thisIndex,thisRow.t,notes,welcomescreen.started,spaceship.started,welcometext.started,welcome_end.started,welcomescreen.stopped,welcome_end.keys,welcome_end.rt,welcome_end.duration,pre_section.started,fixation_init.started,pre_section.stopped,trial.started,arrowhead.started,key_resp.started,arrowhead.stopped,trial.stopped,key_resp.keys,key_resp.corr,key_resp.rt,key_resp.duration,fixation_feedback.started,cross.started,feedback_text.started,cross.stopped,feedback_text.stopped,fixation_feedback.stopped,RSI.started,text_2.started,text_2.stopped,RSI.stopped,post_section.started,feedback_post_section.started,key_resp_4.started,feedback_post_section.stopped,post_section.stopped,key_resp_4.keys,key_resp_4.rt,key_resp_4.duration,pratice_instruction.started,spaceship_rotated.started,rotation_instruction.started,key_resp_2.started,pratice_instruction.stopped,key_resp_2.keys,key_resp_2.rt,key_resp_2.duration,key_resp.stopped,fixation_init.stopped,learning_instruction.started,spaceship_rotated01.started,rotation_instruction01.started,key_resp_02.started,learning_instruction.stopped,key_resp_02.keys,key_resp_02.rt,key_resp_02.duration,seqreport_instruction.started,seqreport_instruction_text.started,seqreport_instruction_key.started,seqreport_instruction_text.stopped,seqreport_instruction.stopped,seqreport_instruction_key.keys,seqreport_instruction_key.rt,seqreport_instruction_key.duration,seqreport.started,seq_report_key.started,seqreport.stopped,seq_report_key.keys,seq_report_key.rt,seq_report_key.duration,seqarrow.started,arrow_report.started,seqarrow.stopped,arrow_report.stopped,motor_testing_instruction.started,spaceship3.started,motor_testing_instruction_text.started,key_resp_3.started,motor_testing_instruction.stopped,key_resp_3.keys,key_resp_3.rt,key_resp_3.duration,fixation.started,cross_2.started,cross_2.stopped,fixation.stopped,participant,learning_type,seqID,debug,date,expName,psychopyVersion,frameRate,
,,,,,,,,,,,,,,,,,,,,,,,,,,,,,,,,,,,,,,,,,,,,,,,0.010843500000191852,0.024561999991419725,0.024561999991419725,0.024561999991419725,13.647188499991898,space,13.619575300006545,None,,,,,,,,,,,,,,,,,,,,,,,,,,,,,,,,,,,,,,,,,,,,,,,,,,,,,,,,,,,,,,,,,,,,,,,,,,,,,,,002,motor,5,0,2024-08-01_13h53.06.679,ASRT_motor,2023.2.3,142.03113036845696,
sequences/_initial_random.csv,2,180,2,2,red,,,,0,0,0,0,0,0,0,0,,,,,,,,,,,,,,,,,,,,,,,,,,,,,14.696020299990778,,,,,,,,,,13.671686699992279,13.678573500001221,14.64953080000123,14.691877299992484,14.696020299990778,14.696020299990778,14.899475799989887,15.416496999998344,2,1,0.7145275000075344,None,15.41793619999953,15.42626759999257,15.42626759999257,15.628439599997364,15.836998899991158,15.831258499994874,15.831294099989464,15.836998899991158,16.537964299990563,16.531396399994264,,,,,,,,,,,,,,,,,,,,,,,,,,,,,,,,,,,,,,,,,,,,,,,,,,,,,,,,,002,motor,5,0,2024-08-01_13h53.06.679,ASRT_motor,2023.2.3,142.03113036845696,
sequences/_initial_random.csv,0,0,0,4,red,,,,0,0,0,0,0,1,1,1,,,,,,,,,,,,,,,,,,,,,,,,,,,,,16.537964299990563,,,,,,,,,,,,,16.531667199989897,16.537964299990563,16.537964299990563,16.73980969999684,17.00644050000119,4,1,0.4649348000093596,None,17.007133899998735,17.012774699993315,17.012774699993315,17.218935699987924,17.427061499998672,17.421867099998053,17.42190779998782,17.427061499998672,,18.121981299991603,,,,,,,,,,,,,,,,,,,,,,,,,,,,,,,,,,,,,,,,,,,,,,,,,,,,,,,,,002,motor,5,0,2024-08-01_13h53.06.679,ASRT_motor,2023.2.3,142.03113036845696,
sequences/_initial_random.csv,0,0,0,4,red,,,,0,0,0,0,0,2,2,2,,,,,,,,,,,,,,,,,,,,,,,,,,,,,18.128692499987665,,,,,,,,,,,,,18.12262509998982,18.128692499987665,18.128692499987665,18.3303190000006,19.032942699996056,4,1,0.8996274999954039,None,19.033518399999593,19.038511499995366,19.038511499995366,19.246743399999104,19.455457199990633,19.44887639999797,19.4489118999918,19.455457199990633,,20.149751299992204,,,,,,,,,,,,,,,,,,,,,,,,,,,,,,,,,,,,,,,,,,,,,,,,,,,,,,,,,002,motor,5,0,2024-08-01_13h53.06.679,ASRT_motor,2023.2.3,142.03113036845696,
sequences/_initial_random.csv,3,270,3,1,red,,,,0,0,0,0,0,3,3,3,,,,,,,,,,,,,,,,,,,,,,,,,,,,,20.15636049999739,,,,,,,,,,,,,20.150307099989732,20.15636049999739,20.15636049999739,20.357715599995572,20.768073599989293,1,1,0.6068541999993613,None,20.76841199999035,20.774211500000092,20.774211500000092,20.98277099999541,21.19100459999754,21.18501619999006,21.185048200000892,21.19100459999754,,21.88575950000086,,,,,,,,,,,,,,,,,,,,,,,,,,,,,,,,,,,,,,,,,,,,,,,,,,,,,,,,,002,motor,5,0,2024-08-01_13h53.06.679,ASRT_motor,2023.2.3,142.03113036845696,
sequences/_initial_random.csv,0,0,0,4,red,,,,0,0,0,0,0,4,4,4,,,,,,,,,,,,,,,,,,,,,,,,,,,,,21.892222499998752,,,,,,,,,,,,,21.886215799997444,21.892222499998752,21.892222499998752,22.09328749999986,22.35320729999512,4,1,0.4543578000011621,None,22.353954099991824,22.359991599994828,22.359991599994828,22.56646180000098,22.774310799999512,22.76850919998833,22.768550799999502,22.774310799999512,,23.468634599994402,,,,,,,,,,,,,,,,,,,,,,,,,,,,,,,,,,,,,,,,,,,,,,,,,,,,,,,,,002,motor,5,0,2024-08-01_13h53.06.679,ASRT_motor,2023.2.3,142.03113036845696,
sequences/_initial_random.csv,2,180,2,2,red,,,,0,0,0,0,0,5,5,5,,,,,,,,,,,,,,,,,,,,,,,,,,,,,23.475425799988443,,,,,,,,,,,,,23.469072799998685,23.475425799988443,23.475425799988443,23.677112299992586,24.0076798999944,2,1,0.5292895000020508,None,24.008877899992513,24.01481199999398,24.01481199999398,24.2188662999979,24.426931999987573,24.420700799993938,24.420728599987342,24.426931999987573,,25.121834499994293,,,,,,,,,,,,,,,,,,,,,,,,,,,,,,,,,,,,,,,,,,,,,,,,,,,,,,,,,002,motor,5,0,2024-08-01_13h53.06.679,ASRT_motor,2023.2.3,142.03113036845696,
sequences/_initial_random.csv,2,180,2,2,red,,,,0,0,0,0,0,6,6,6,,,,,,,,,,,,,,,,,,,,,,,,,,,,,25.128232699993532,,,,,,,,,,,,,25.122273999993922,25.128232699993532,25.128232699993532,25.329967500001658,25.671738099990762,2,1,0.5362388999928953,None,25.67249909999373,25.678171399995335,25.678171399995335,25.885542299991357,26.093730900000082,26.088240299999597,26.088285899997572,26.093730900000082,,26.788573099998757,,,,,,,,,,,,,,,,,,,,,,,,,,,,,,,,,,,,,,,,,,,,,,,,,,,,,,,,,002,motor,5,0,2024-08-01_13h53.06.679,ASRT_motor,2023.2.3,142.03113036845696,
sequences/_initial_random.csv,1,90,1,3,red,,,,0,0,0,0,0,7,7,7,,,,,,,,,,,,,,,,,,,,,,,,,,,,,26.795113699990907,,,,,,,,,,,,,26.789295499998843,26.795113699990907,26.795113699990907,26.996675199989113,27.180085200001486,3,1,0.37859779999416787,None,27.180987399988226,27.185550900001545,27.185550900001545,27.392283699999098,27.600882699989597,27.59513019998849,27.595170699991286,27.600882699989597,,28.29658739999286,,,,,,,,,,,,,,,,,,,,,,,,,,,,,,,,,,,,,,,,,,,,,,,,,,,,,,,,,002,motor,5,0,2024-08-01_13h53.06.679,ASRT_motor,2023.2.3,142.03113036845696,
sequences/_initial_random.csv,3,270,3,1,red,,,,0,0,0,0,0,8,8,8,,,,,,,,,,,,,,,,,,,,,,,,,,,,,28.31190119999519,,,,,,,,,,,,,28.29824419999204,28.31190119999519,28.31190119999519,28.517948199994862,28.665896199992858,1,1,0.3498098999989452,None,28.66660409999895,28.671974699987913,28.671974699987913,28.878062999996473,29.086944299997413,29.081585399995674,29.081626999992295,29.086944299997413,29.790623399996548,29.78266939999594,,,,,,,,,,,,,,,,,,,,,,,,,,,,,,,,,,,,,,,,,,,,,,,,,,,,,,,,,002,motor,5,0,2024-08-01_13h53.06.679,ASRT_motor,2023.2.3,142.03113036845696,
sequences/_initial_random.csv,2,180,2,2,red,,,,0,0,0,0,0,9,9,9,,,,,,,,,,,,,,,,,,,,,,,,,,,,,29.790623399996548,,,,,,,,,,,,,29.783351799997035,29.790623399996548,29.790623399996548,29.996177799999714,30.13380419999885,2,1,0.33544380000967067,None,30.13536380000005,30.14584119999199,30.14584119999199,30.34409319999395,30.55335849999392,30.547184499999275,30.54723159999412,30.55335849999392,31.253812599999947,31.247767599998042,,,,,,,,,,,,,,,,,,,,,,,,,,,,,,,,,,,,,,,,,,,,,,,,,,,,,,,,,002,motor,5,0,2024-08-01_13h53.06.679,ASRT_motor,2023.2.3,142.03113036845696,
sequences/_initial_random.csv,3,270,3,1,red,,,,0,0,0,0,0,10,10,10,,,,,,,,,,,,,,,,,,,,,,,,,,,,,31.253812599999947,,,,,,,,,,,,,31.248537899999064,31.253812599999947,31.253812599999947,31.455466799990973,31.672211899989634,1,1,0.4129302999936044,None,31.672850099988864,31.67777009999554,31.67777009999554,31.885434499999974,32.09346899999946,32.08733119998942,32.087364699997124,32.09346899999946,,32.78862539998954,,,,,,,,,,,,,,,,,,,,,,,,,,,,,,,,,,,,,,,,,,,,,,,,,,,,,,,,,002,motor,5,0,2024-08-01_13h53.06.679,ASRT_motor,2023.2.3,142.03113036845696,
sequences/_initial_random.csv,2,180,2,2,red,,,,0,0,0,0,0,11,11,11,,,,,,,,,,,,,,,,,,,,,,,,,,,,,32.79569889999402,,,,,,,,,,,,,32.78931399999419,32.79569889999402,32.79569889999402,32.99691339999845,33.17989489999309,2,1,0.37913790000311565,None,33.18069779999496,33.18757039999764,33.18757039999764,33.39186129999871,33.60031949999393,33.59417339999345,33.59420500000124,33.60031949999393,,34.29531479999423,,,,,,,,,,,,,,,,,,,,,,,,,,,,,,,,,,,,,,,,,,,,,,,,,,,,,,,,,002,motor,5,0,2024-08-01_13h53.06.679,ASRT_motor,2023.2.3,142.03113036845696,
sequences/_initial_random.csv,3,270,3,1,red,,,,0,0,0,0,0,12,12,12,,,,,,,,,,,,,,,,,,,,,,,,,,,,,34.30165879998822,,,,,,,,,,,,,34.29599089999101,34.30165879998822,34.30165879998822,34.50373599999875,34.67302019998897,1,1,0.3635664000030374,None,34.6739407999994,34.68211670000164,34.68211670000164,34.885224899990135,35.09334739999031,35.08674109999265,35.08675669999502,35.09334739999031,,35.78848609999113,,,,,,,,,,,,,,,,,,,,,,,,,,,,,,,,,,,,,,,,,,,,,,,,,,,,,,,,,002,motor,5,0,2024-08-01_13h53.06.679,ASRT_motor,2023.2.3,142.03113036845696,
sequences/_initial_random.csv,2,180,2,2,red,,,,0,0,0,0,0,13,13,13,,,,,,,,,,,,,,,,,,,,,,,,,,,,,35.79483020000043,,,,,,,,,,,,,35.78919299998961,35.79483020000043,35.79483020000043,35.99682079999184,36.1646030999982,2,1,0.365234099997906,None,36.16513809999742,36.17066069999419,36.17066069999419,36.37807690000045,36.58624089999648,36.579471499993815,36.57948739999847,36.58624089999648,,37.2815455999953,,,,,,,,,,,,,,,,,,,,,,,,,,,,,,,,,,,,,,,,,,,,,,,,,,,,,,,,,002,motor,5,0,2024-08-01_13h53.06.679,ASRT_motor,2023.2.3,142.03113036845696,
sequences/_initial_random.csv,3,270,3,1,red,,,,0,0,0,0,0,14,14,14,,,,,,,,,,,,,,,,,,,,,,,,,,,,,37.29020939998736,,,,,,,,,,,,,37.28235219999624,37.29020939998736,37.29020939998736,37.489815299995826,37.603719099992304,1,1,0.3100531000090996,None,37.604670899992925,37.61056919999828,37.61056919999828,37.815890799989575,38.02357299999858,38.01747449999675,38.017501399997855,38.02357299999858,,38.71920949999185,,,,,,,,,,,,,,,,,,,,,,,,,,,,,,,,,,,,,,,,,,,,,,,,,,,,,,,,,002,motor,5,0,2024-08-01_13h53.06.679,ASRT_motor,2023.2.3,142.03113036845696,
sequences/_initial_random.csv,0,0,0,4,red,,,,0,0,0,0,0,15,15,15,,,,,,,,,,,,,,,,,,,,,,,,,,,,,38.725030199988396,,,,,,,,,,,,,38.719725799994194,38.725030199988396,38.725030199988396,38.92676429999119,39.19451049999043,4,1,0.4661679999990156,None,39.19508869999845,39.20196579999174,39.20196579999174,39.405522599990945,39.61366769998858,39.607124999994994,39.60714019999432,39.61366769998858,,40.30888669998967,,,,,,,,,,,,,,,,,,,,,,,,,,,,,,,,,,,,,,,,,,,,,,,,,,,,,,,,,002,motor,5,0,2024-08-01_13h53.06.679,ASRT_motor,2023.2.3,142.03113036845696,
sequences/_initial_random.csv,0,0,0,4,red,,,,0,0,0,0,0,16,16,16,,,,,,,,,,,,,,,,,,,,,,,,,,,,,40.31559999998717,,,,,,,,,,,,,40.30954789998941,40.31559999998717,40.31559999998717,40.51748279998719,40.685536399993,4,1,0.36327170000004116,None,40.68623099999968,40.692612699989695,40.692612699989695,40.898699599987594,41.10690159999649,41.100543799999286,41.10056469999836,41.10690159999649,,41.80313699999533,,,,,,,,,,,,,,,,,,,,,,,,,,,,,,,,,,,,,,,,,,,,,,,,,,,,,,,,,002,motor,5,0,2024-08-01_13h53.06.679,ASRT_motor,2023.2.3,142.03113036845696,
sequences/_initial_random.csv,0,0,0,4,red,,,,0,0,0,0,0,17,17,17,,,,,,,,,,,,,,,,,,,,,,,,,,,,,41.808792799987714,,,,,,,,,,,,,41.80364410000038,41.808792799987714,41.808792799987714,42.01000509998994,42.14938019998954,4,1,0.3365809000097215,None,42.149634299988975,42.155382299999474,42.155382299999474,42.36372699998901,42.57263169999351,42.56745139999839,42.56750359998841,42.57263169999351,43.273806999990484,43.26709519998985,,,,,,,,,,,,,,,,,,,,,,,,,,,,,,,,,,,,,,,,,,,,,,,,,,,,,,,,,002,motor,5,0,2024-08-01_13h53.06.679,ASRT_motor,2023.2.3,142.03113036845696,
sequences/_initial_random.csv,2,180,2,2,red,,,,0,0,0,0,0,18,18,18,,,,,,,,,,,,,,,,,,,,,,,,,,,,,43.273806999990484,,,,,,,,,,,,,43.2674268999981,43.273806999990484,43.273806999990484,43.47578659999999,43.8443769000005,2,1,0.566244400004507,None,43.84485649999988,43.84980050000013,43.84980050000013,44.05857529999048,44.26880399999209,44.2624802999926,44.262532900000224,44.26880399999209,44.9696385999996,44.96325019998767,,,,,,,,,,,,,,,,,,,,,,,,,,,,,,,,,,,,,,,,,,,,,,,,,,,,,,,,,002,motor,5,0,2024-08-01_13h53.06.679,ASRT_motor,2023.2.3,142.03113036845696,
sequences/_initial_random.csv,2,180,2,2,red,,,,0,0,0,0,0,19,19,19,,,,,,,,,,,,,,,,,,,,,,,,,,,,,44.9696385999996,,,,,,,,,,,,,44.963993999990635,44.9696385999996,44.9696385999996,45.169820899987826,45.39392189998762,2,1,0.42102920000615995,None,45.39456000000064,45.39979250000033,45.39979250000033,45.60747360000096,45.8160460999934,45.810480599990115,45.81052709999494,45.8160460999934,46.520429199998034,46.51142799999798,,,,,,,,,,,,,,,,,,,,,,,,,,,,,,,,,,,,,,,,,,,,,,,,,,,,,,,,,002,motor,5,0,2024-08-01_13h53.06.679,ASRT_motor,2023.2.3,142.03113036845696,
sequences/_initial_random.csv,3,270,3,1,red,,,,0,0,0,0,0,20,20,20,,,,,,,,,,,,,,,,,,,,,,,,,,,,,46.520429199998034,,,,,,,,,,,,,46.51217519999773,46.520429199998034,46.520429199998034,46.724722499988275,46.8440724999964,1,1,0.31589379999786615,None,46.844453899990185,46.849987800000235,46.849987800000235,47.059099599995534,47.26705619999848,47.261283299987554,47.26133419999678,47.26705619999848,47.96806869999273,47.96161040000152,,,,,,,,,,,,,,,,,,,,,,,,,,,,,,,,,,,,,,,,,,,,,,,,,,,,,,,,,002,motor,5,0,2024-08-01_13h53.06.679,ASRT_motor,2023.2.3,142.03113036845696,
sequences/_initial_random.csv,3,270,3,1,red,,,,0,0,0,0,0,21,21,21,,,,,,,,,,,,,,,,,,,,,,,,,,,,,47.96806869999273,,,,,,,,,,,,,47.96205809999083,47.96806869999273,47.96806869999273,48.169269899997744,48.31628410000121,1,1,0.3441143999953056,None,48.316860999999335,48.32195289999072,48.32195289999072,48.530936800001655,48.74020649999147,48.73395549999259,48.734013599998434,48.74020649999147,49.44009789999109,49.433691300000646,,,,,,,,,,,,,,,,,,,,,,,,,,,,,,,,,,,,,,,,,,,,,,,,,,,,,,,,,002,motor,5,0,2024-08-01_13h53.06.679,ASRT_motor,2023.2.3,142.03113036845696,
sequences/_initial_random.csv,3,270,3,1,red,,,,0,0,0,0,0,22,22,22,,,,,,,,,,,,,,,,,,,,,,,,,,,,,49.44009789999109,,,,,,,,,,,,,49.43416279999656,49.44009789999109,49.44009789999109,49.64150990000053,49.796859800000675,1,1,0.35166270000627264,None,49.797553600001265,49.805183699994814,49.805183699994814,50.009654099994805,50.218103999999585,50.21190689998912,50.21193879999919,50.218103999999585,,50.912552299996605,,,,,,,,,,,,,,,,,,,,,,,,,,,,,,,,,,,,,,,,,,,,,,,,,,,,,,,,,002,motor,5,0,2024-08-01_13h53.06.679,ASRT_motor,2023.2.3,142.03113036845696,
sequences/_initial_random.csv,1,90,1,3,red,,,,0,0,0,0,0,23,23,23,,,,,,,,,,,,,,,,,,,,,,,,,,,,,50.91911229999096,,,,,,,,,,,,,50.91296029998921,50.91911229999096,50.91911229999096,51.12049699999625,51.262352899997495,3,1,0.33931539999321103,None,51.26312059999327,51.26896560000023,51.26896560000023,51.47552039999573,51.683885499995085,51.6785164999892,51.67855499999132,51.683885499995085,52.38460130000021,52.37812359999225,,,,,,,,,,,,,,,,,,,,,,,,,,,,,,,,,,,,,,,,,,,,,,,,,,,,,,,,,002,motor,5,0,2024-08-01_13h53.06.679,ASRT_motor,2023.2.3,142.03113036845696,
sequences/_initial_random.csv,3,270,3,1,red,,,,0,0,0,0,0,24,24,24,,,,,,,,,,,,,,,,,,,,,,,,,,,,,52.38460130000021,,,,,,,,,,,,,52.37867330000154,52.38460130000021,52.38460130000021,52.586315299995476,52.71356669999659,1,1,0.3270310000079917,None,52.71421399999235,52.71952519999468,52.71952519999468,52.92634890000045,53.13514469999063,53.128864300000714,53.128903799995896,53.13514469999063,,53.82946909999009,,,,,,,,,,,,,,,,,,,,,,,,,,,,,,,,,,,,,,,,,,,,,,,,,,,,,,,,,002,motor,5,0,2024-08-01_13h53.06.679,ASRT_motor,2023.2.3,142.03113036845696,
sequences/_initial_random.csv,3,270,3,1,red,,,,0,0,0,0,0,25,25,25,,,,,,,,,,,,,,,,,,,,,,,,,,,,,53.83646369999042,,,,,,,,,,,,,53.83013459999347,53.83646369999042,53.83646369999042,54.03719149999961,54.255938399990555,1,1,0.4152404999913415,None,54.25673699998879,54.263710899991565,54.263710899991565,54.46818959999655,54.67659499999718,54.67089829999895,54.670943099990836,54.67659499999718,55.37752819999878,55.37120270000014,,,,,,,,,,,,,,,,,,,,,,,,,,,,,,,,,,,,,,,,,,,,,,,,,,,,,,,,,002,motor,5,0,2024-08-01_13h53.06.679,ASRT_motor,2023.2.3,142.03113036845696,
sequences/_initial_random.csv,2,180,2,2,red,,,,0,0,0,0,0,26,26,26,,,,,,,,,,,,,,,,,,,,,,,,,,,,,55.37752819999878,,,,,,,,,,,,,55.37161139999807,55.37752819999878,55.37752819999878,55.57911659999809,55.81658919999609,2,1,0.4345858999877237,None,55.8169007999968,55.82214679999743,55.82214679999743,56.0306328000006,56.24012639999273,56.23398539998743,56.23403759999201,56.24012639999273,56.94077859999379,56.93433949998871,,,,,,,,,,,,,,,,,,,,,,,,,,,,,,,,,,,,,,,,,,,,,,,,,,,,,,,,,002,motor,5,0,2024-08-01_13h53.06.679,ASRT_motor,2023.2.3,142.03113036845696,
sequences/_initial_random.csv,1,90,1,3,red,,,,0,0,0,0,0,27,27,27,,,,,,,,,,,,,,,,,,,,,,,,,,,,,56.94077859999379,,,,,,,,,,,,,56.93493819999276,56.94077859999379,56.94077859999379,57.14131279999856,57.29713469999842,3,1,0.353155799995875,None,57.297941999990144,57.303168499987805,57.303168499987805,57.50967020000098,57.717981699999655,57.711733899996034,57.71176239999477,57.717981699999655,,58.412961399997585,,,,,,,,,,,,,,,,,,,,,,,,,,,,,,,,,,,,,,,,,,,,,,,,,,,,,,,,,002,motor,5,0,2024-08-01_13h53.06.679,ASRT_motor,2023.2.3,142.03113036845696,
sequences/_initial_random.csv,1,90,1,3,red,,,,0,0,0,0,0,28,28,28,,,,,,,,,,,,,,,,,,,,,,,,,,,,,58.41902929999924,,,,,,,,,,,,,58.41351859999122,58.41902929999924,58.41902929999924,58.620660599990515,58.78213939999114,3,1,0.35652409998874646,None,58.7826434999879,58.78731899999548,58.78731899999548,58.99609739999869,59.20409819998895,59.1981545999879,59.19820020000043,59.20409819998895,,59.898635899997316,,,,,,,,,,,,,,,,,,,,,,,,,,,,,,,,,,,,,,,,,,,,,,,,,,,,,,,,,002,motor,5,0,2024-08-01_13h53.06.679,ASRT_motor,2023.2.3,142.03113036845696,
sequences/_initial_random.csv,0,0,0,4,red,,,,0,0,0,0,0,29,29,29,,,,,,,,,,,,,,,,,,,,,,,,,,,,,59.905090399988694,,,,,,,,,,,,,59.89916309999535,59.905090399988694,59.905090399988694,60.106776699991315,60.47127669998736,4,1,0.5634004999883473,None,60.47202199998719,60.47755559999496,60.47755559999496,60.6832859999995,60.891560899995966,60.885752699992736,60.88578649998817,60.891560899995966,61.59250459999021,61.586043299990706,,,,,,,,,,,,,,,,,,,,,,,,,,,,,,,,,,,,,,,,,,,,,,,,,,,,,,,,,002,motor,5,0,2024-08-01_13h53.06.679,ASRT_motor,2023.2.3,142.03113036845696,
sequences/_initial_random.csv,1,90,1,3,red,,,,0,0,0,0,0,30,30,30,,,,,,,,,,,,,,,,,,,,,,,,,,,,,61.59250459999021,,,,,,,,,,,,,61.58628089999547,61.59250459999021,61.59250459999021,61.7944254999893,62.041610499989474,3,1,0.44543969999358524,None,62.042577100000926,62.05201549999765,62.05201549999765,62.25238369998988,62.4608462999895,62.455801199990674,62.455850099999225,62.4608462999895,63.16259799999534,63.15631379999104,,,,,,,,,,,,,,,,,,,,,,,,,,,,,,,,,,,,,,,,,,,,,,,,,,,,,,,,,002,motor,5,0,2024-08-01_13h53.06.679,ASRT_motor,2023.2.3,142.03113036845696,
sequences/_initial_random.csv,1,90,1,3,red,,,,0,0,0,0,0,31,31,31,,,,,,,,,,,,,,,,,,,,,,,,,,,,,63.16259799999534,,,,,,,,,,,,,63.15682829999423,63.16259799999534,63.16259799999534,63.36359489998722,63.51222749998851,3,1,0.34466610000527,None,63.51292759999342,63.52173129998846,63.52173129998846,63.72493569999642,63.93296299999929,63.92706879999605,63.92710339999758,63.93296299999929,,64.62892170000123,,,,,,,,,,,,,,,,,,,,,,,,,,,,,,,,,,,,,,,,,,,,,,,,,,,,,,,,,002,motor,5,0,2024-08-01_13h53.06.679,ASRT_motor,2023.2.3,142.03113036845696,
sequences/_initial_random.csv,1,90,1,3,red,,,,0,0,0,0,0,32,32,32,,,,,,,,,,,,,,,,,,,,,,,,,,,,,64.63953919999767,,,,,,,,,,,,,64.63011019999976,64.63953919999767,64.63953919999767,64.8431838999968,64.97244689999206,3,1,0.3292356000019936,None,64.97316819999833,64.97992559999693,64.97992559999693,65.18325099999493,65.39190449999296,65.38563720000093,65.38567939998757,65.39190449999296,,66.08638949999295,,,,,,,,,,,,,,,,,,,,,,,,,,,,,,,,,,,,,,,,,,,,,,,,,,,,,,,,,002,motor,5,0,2024-08-01_13h53.06.679,ASRT_motor,2023.2.3,142.03113036845696,
sequences/_initial_random.csv,1,90,1,3,red,,,,0,0,0,0,0,33,33,33,,,,,,,,,,,,,,,,,,,,,,,,,,,,,66.09311789998901,,,,,,,,,,,,,66.0872168999922,66.09311789998901,66.09311789998901,66.2944822999998,66.47128969999903,3,1,0.37202650000108406,None,66.4721000999998,66.47830429999158,66.47830429999158,66.68307509999431,66.8913748999912,66.88609869999345,66.88613909999549,66.8913748999912,67.59274999999616,67.5862841999915,,,,,,,,,,,,,,,,,,,,,,,,,,,,,,,,,,,,,,,,,,,,,,,,,,,,,,,,,002,motor,5,0,2024-08-01_13h53.06.679,ASRT_motor,2023.2.3,142.03113036845696,
sequences/_initial_random.csv,3,270,3,1,red,,,,0,0,0,0,0,34,34,34,,,,,,,,,,,,,,,,,,,,,,,,,,,,,67.59274999999616,,,,,,,,,,,,,67.58674159999646,67.59274999999616,67.59274999999616,67.79380179999862,67.93270069999562,1,1,0.3298374000005424,None,67.93347399999038,67.9399138000008,67.9399138000008,68.14141919999383,68.34964699999546,68.34381089999806,68.34384839999257,68.34964699999546,,69.04391490000125,,,,,,,,,,,,,,,,,,,,,,,,,,,,,,,,,,,,,,,,,,,,,,,,,,,,,,,,,002,motor,5,0,2024-08-01_13h53.06.679,ASRT_motor,2023.2.3,142.03113036845696,
sequences/_initial_random.csv,0,0,0,4,red,,,,0,0,0,0,0,35,35,35,,,,,,,,,,,,,,,,,,,,,,,,,,,,,69.05076119999285,,,,,,,,,,,,,69.04422049999994,69.05076119999285,69.05076119999285,69.25256090000039,69.42048789998807,4,1,0.3632694999978412,None,69.42103299999144,69.42585649999091,69.42585649999091,69.63463010000123,69.84272010000132,69.83722919999855,69.83727059999364,69.84272010000132,,70.53760349999357,,,,,,,,,,,,,,,,,,,,,,,,,,,,,,,,,,,,,,,,,,,,,,,,,,,,,,,,,002,motor,5,0,2024-08-01_13h53.06.679,ASRT_motor,2023.2.3,142.03113036845696,
sequences/_initial_random.csv,1,90,1,3,red,,,,0,0,0,0,0,36,36,36,,,,,,,,,,,,,,,,,,,,,,,,,,,,,70.5453131999966,,,,,,,,,,,,,70.53881479999109,70.5453131999966,70.5453131999966,70.74616629999946,70.87920669998857,3,1,0.32636900000215974,None,70.87985189999745,70.88557600000058,70.88557600000058,71.09252749998996,71.30101769999601,71.29521640000166,71.29526199999964,71.30101769999601,72.0019789999933,71.99555439999676,,,,,,,,,,,,,,,,,,,,,,,,,,,,,,,,,,,,,,,,,,,,,,,,,,,,,,,,,002,motor,5,0,2024-08-01_13h53.06.679,ASRT_motor,2023.2.3,142.03113036845696,
sequences/_initial_random.csv,0,0,0,4,red,,,,0,0,0,0,0,37,37,37,,,,,,,,,,,,,,,,,,,,,,,,,,,,,72.0019789999933,,,,,,,,,,,,,71.99606259999564,72.0019789999933,72.0019789999933,72.20362789998762,72.40206349999062,4,1,0.3964680000062799,None,72.40323279998847,72.41235610000149,72.41235610000149,72.61412030000065,72.822010399992,72.81515929999296,72.81518689999939,72.822010399992,,73.5165100999875,,,,,,,,,,,,,,,,,,,,,,,,,,,,,,,,,,,,,,,,,,,,,,,,,,,,,,,,,002,motor,5,0,2024-08-01_13h53.06.679,ASRT_motor,2023.2.3,142.03113036845696,
sequences/_initial_random.csv,3,270,3,1,red,,,,0,0,0,0,0,38,38,38,,,,,,,,,,,,,,,,,,,,,,,,,,,,,73.5233436999988,,,,,,,,,,,,,73.51711489999434,73.5233436999988,73.5233436999988,73.72473799998988,73.86560029999237,1,1,0.3362427999963984,None,73.86624939998728,73.87186119999387,73.87186119999387,74.07915099999809,74.2870597000001,74.28174609999405,74.28179199999431,74.2870597000001,,74.98221119999653,,,,,,,,,,,,,,,,,,,,,,,,,,,,,,,,,,,,,,,,,,,,,,,,,,,,,,,,,002,motor,5,0,2024-08-01_13h53.06.679,ASRT_motor,2023.2.3,142.03113036845696,
sequences/_initial_random.csv,0,0,0,4,red,,,,0,0,0,0,0,39,39,39,,,,,,,,,,,,,,,,,,,,,,,,,,,,,74.98834679998981,,,,,,,,,,,,,74.98289499999373,74.98834679998981,74.98834679998981,75.19010699998762,75.35108369999216,4,1,0.3554558000032557,None,75.35167160000128,75.35643689999415,75.35643689999415,75.56431309999607,75.77300359999936,75.76724169999943,75.76727630000096,75.77300359999936,,76.46843999999692,,,,,,,,,,,,,,,,,,,,,,,,,,,,,,,,,,,,,,,,,,,,,,,,,,,,,,,,,002,motor,5,0,2024-08-01_13h53.06.679,ASRT_motor,2023.2.3,142.03113036845696,
sequences/_initial_random.csv,2,180,2,2,red,,,,0,0,0,0,0,40,40,40,,,,,,,,,,,,,,,,,,,,,,,,,,,,,76.47590669999772,,,,,,,,,,,,,76.4690147999936,76.47590669999772,76.47590669999772,76.67548259999603,76.87985040000058,4,0,0.3962842999899294,None,76.88043549998838,76.9444494999916,76.9444494999916,77.14183799999591,77.34931549998873,77.3429591999884,77.34298669999407,77.34931549998873,,78.04458180000074,,,,,,,,,,,,,,,,,,,,,,,,,,,,,,,,,,,,,,,,,,,,,,,,,,,,,,,,,002,motor,5,0,2024-08-01_13h53.06.679,ASRT_motor,2023.2.3,142.03113036845696,
sequences/_initial_random.csv,3,270,3,1,red,,,,0,0,0,0,0,41,41,41,,,,,,,,,,,,,,,,,,,,,,,,,,,,,78.05219819999184,,,,,,,,,,,,,78.04538159999356,78.05219819999184,78.05219819999184,78.25296369999705,78.44824859999062,1,1,0.3889060000074096,None,78.44890360000136,78.45452269999078,78.45452269999078,78.66187509999145,78.86975259998871,78.86326369999733,78.86328009999124,78.86975259998871,,79.56532679998782,,,,,,,,,,,,,,,,,,,,,,,,,,,,,,,,,,,,,,,,,,,,,,,,,,,,,,,,,002,motor,5,0,2024-08-01_13h53.06.679,ASRT_motor,2023.2.3,142.03113036845696,
sequences/_initial_random.csv,3,270,3,1,red,,,,0,0,0,0,0,42,42,42,,,,,,,,,,,,,,,,,,,,,,,,,,,,,79.57499109998753,,,,,,,,,,,,,79.56603429999086,79.57499109998753,79.57499109998753,79.78018919999886,79.92113750000135,1,1,0.3402749000088079,None,79.92182399999001,79.93059429999266,79.93059429999266,80.13428379999823,80.34253719999106,80.33640590000141,80.33643189999566,80.34253719999106,,81.03736170000047,,,,,,,,,,,,,,,,,,,,,,,,,,,,,,,,,,,,,,,,,,,,,,,,,,,,,,,,,002,motor,5,0,2024-08-01_13h53.06.679,ASRT_motor,2023.2.3,142.03113036845696,
sequences/_initial_random.csv,2,180,2,2,red,,,,0,0,0,0,0,43,43,43,,,,,,,,,,,,,,,,,,,,,,,,,,,,,81.04435569999623,,,,,,,,,,,,,81.03794349999225,81.04435569999623,81.04435569999623,81.24524920000113,81.5469094,2,1,0.4990720999921905,None,81.54768989999138,81.55361109999649,81.55361109999649,81.75937259999046,81.96725760000118,81.96094779999112,81.96097659999214,81.96725760000118,,82.66254099999787,,,,,,,,,,,,,,,,,,,,,,,,,,,,,,,,,,,,,,,,,,,,,,,,,,,,,,,,,002,motor,5,0,2024-08-01_13h53.06.679,ASRT_motor,2023.2.3,142.03113036845696,
sequences/_initial_random.csv,3,270,3,1,red,,,,0,0,0,0,0,44,44,44,,,,,,,,,,,,,,,,,,,,,,,,,,,,,82.66975069999171,,,,,,,,,,,,,82.66334959999949,82.66975069999171,82.66975069999171,82.87055749999126,83.10920439999609,1,1,0.43439280000166036,None,83.10997829999542,83.11674919999496,83.11674919999496,83.32127010000113,83.52959539998847,83.5235709999979,83.52360169999884,83.52959539998847,,84.2249407999916,,,,,,,,,,,,,,,,,,,,,,,,,,,,,,,,,,,,,,,,,,,,,,,,,,,,,,,,,002,motor,5,0,2024-08-01_13h53.06.679,ASRT_motor,2023.2.3,142.03113036845696,
sequences/_initial_random.csv,0,0,0,4,red,,,,0,0,0,0,0,45,45,45,,,,,,,,,,,,,,,,,,,,,,,,,,,,,84.23309359999257,,,,,,,,,,,,,84.22559319999709,84.23309359999257,84.23309359999257,84.43925669998862,84.75345519999973,4,1,0.5187813999946229,None,84.7538615999947,84.75855749999755,84.75855749999755,84.96679399999266,85.17588199999591,85.17067559999123,85.17072599999665,85.17588199999591,,85.8711661999987,,,,,,,,,,,,,,,,,,,,,,,,,,,,,,,,,,,,,,,,,,,,,,,,,,,,,,,,,002,motor,5,0,2024-08-01_13h53.06.679,ASRT_motor,2023.2.3,142.03113036845696,
sequences/_initial_random.csv,2,180,2,2,red,,,,0,0,0,0,0,46,46,46,,,,,,,,,,,,,,,,,,,,,,,,,,,,,85.87862999999197,,,,,,,,,,,,,85.87192609999329,85.87862999999197,85.87862999999197,86.07854619999125,86.46903399999428,2,1,0.5840427999937674,None,86.46967049999512,86.47611199998937,86.47611199998937,86.68279229999462,86.89118409999355,86.88536689999455,86.88541209998948,86.89118409999355,,87.58567970000149,,,,,,,,,,,,,,,,,,,,,,,,,,,,,,,,,,,,,,,,,,,,,,,,,,,,,,,,,002,motor,5,0,2024-08-01_13h53.06.679,ASRT_motor,2023.2.3,142.03113036845696,
sequences/_initial_random.csv,2,180,2,2,red,,,,0,0,0,0,0,47,47,47,,,,,,,,,,,,,,,,,,,,,,,,,,,,,87.59221409999009,,,,,,,,,,,,,87.58627339999657,87.59221409999009,87.59221409999009,87.79348349999054,88.088016099995,2,1,0.49006959999678656,None,88.0887495999923,88.0970524000004,88.0970524000004,88.30048259999603,88.50892819999717,88.50305679999292,88.50309129999368,88.50892819999717,,89.20352979999734,,,,,,,,,,,,,,,,,,,,,,,,,,,,,,,,,,,,,,,,,,,,,,,,,,,,,,,,,002,motor,5,0,2024-08-01_13h53.06.679,ASRT_motor,2023.2.3,142.03113036845696,
sequences/_initial_random.csv,3,270,3,1,red,,,,0,0,0,0,0,48,48,48,,,,,,,,,,,,,,,,,,,,,,,,,,,,,89.21004900000116,,,,,,,,,,,,,89.20402749998902,89.21004900000116,89.21004900000116,89.4114697999903,89.57246499999019,1,1,0.3594117000029655,None,89.57290020000073,89.57795809999516,89.57795809999516,89.78647529998852,89.995165299988,89.98914239999431,89.98918279999634,89.995165299988,,90.6897336999973,,,,,,,,,,,,,,,,,,,,,,,,,,,,,,,,,,,,,,,,,,,,,,,,,,,,,,,,,002,motor,5,0,2024-08-01_13h53.06.679,ASRT_motor,2023.2.3,142.03113036845696,
sequences/_initial_random.csv,0,0,0,4,red,,,,0,0,0,0,0,49,49,49,,,,,,,,,,,,,,,,,,,,,,,,,,,,,90.69623909999791,,,,,,,,,,,,,90.69024099998933,90.69623909999791,90.69623909999791,90.89759899998899,91.28271289999248,4,1,0.5808727999974508,None,91.28339489999053,91.29265569998825,91.29265569998825,91.49496419999923,91.70391139999265,91.69845019999775,91.69850069998938,91.70391139999265,92.40432019998843,92.39830950000032,,,,,,,,,,,,,,,,,,,,,,,,,,,,,,,,,,,,,,,,,,,,,,,,,,,,,,,,,002,motor,5,0,2024-08-01_13h53.06.679,ASRT_motor,2023.2.3,142.03113036845696,
sequences/_initial_random.csv,0,0,0,4,red,,,,0,0,0,0,0,50,50,50,,,,,,,,,,,,,,,,,,,,,,,,,,,,,92.40432019998843,,,,,,,,,,,,,92.39876260000165,92.40432019998843,92.40432019998843,92.60654359999171,92.8800598999951,4,1,0.471988399993279,None,92.88080739999714,92.88998539999011,92.88998539999011,93.09253589999571,93.30162319999363,93.2938209999993,93.29384319999372,93.30162319999363,,93.99545879999641,,,,,,,,,,,,,,,,,,,,,,,,,,,,,,,,,,,,,,,,,,,,,,,,,,,,,,,,,002,motor,5,0,2024-08-01_13h53.06.679,ASRT_motor,2023.2.3,142.03113036845696,
sequences/_initial_random.csv,3,270,3,1,red,,,,0,0,0,0,0,51,51,51,,,,,,,,,,,,,,,,,,,,,,,,,,,,,94.00210629998764,,,,,,,,,,,,,93.99603489998844,94.00210629998764,94.00210629998764,94.20344040000055,94.37005269998917,1,1,0.3607609000027878,None,94.3703247999947,94.37634569998772,94.37634569998772,94.5855806999898,94.79370650000055,94.7881628999894,94.78822149999905,94.79370650000055,95.49455360000138,95.48859549999179,,,,,,,,,,,,,,,,,,,,,,,,,,,,,,,,,,,,,,,,,,,,,,,,,,,,,,,,,002,motor,5,0,2024-08-01_13h53.06.679,ASRT_motor,2023.2.3,142.03113036845696,
sequences/_initial_random.csv,0,0,0,4,red,,,,0,0,0,0,0,52,52,52,,,,,,,,,,,,,,,,,,,,,,,,,,,,,95.49455360000138,,,,,,,,,,,,,95.48914279999735,95.49455360000138,95.49455360000138,95.6968213999935,95.90658229999826,4,1,0.4083078999974532,None,95.9071769000002,95.91216149998945,95.91216149998945,96.11989909999829,96.32828449999215,96.3223416999972,96.32238159999542,96.32828449999215,,97.02327179998974,,,,,,,,,,,,,,,,,,,,,,,,,,,,,,,,,,,,,,,,,,,,,,,,,,,,,,,,,002,motor,5,0,2024-08-01_13h53.06.679,ASRT_motor,2023.2.3,142.03113036845696,
sequences/_initial_random.csv,1,90,1,3,red,,,,0,0,0,0,0,53,53,53,,,,,,,,,,,,,,,,,,,,,,,,,,,,,97.03280339999765,,,,,,,,,,,,,97.02430150000146,97.03280339999765,97.03280339999765,97.23839139999473,97.46892169999774,3,1,0.43131549999816343,None,97.46945409999171,97.47502689999237,97.47502689999237,97.68174499999441,97.8907210999896,97.8851280999952,97.88517239999783,97.8907210999896,,98.58582399999432,,,,,,,,,,,,,,,,,,,,,,,,,,,,,,,,,,,,,,,,,,,,,,,,,,,,,,,,,002,motor,5,0,2024-08-01_13h53.06.679,ASRT_motor,2023.2.3,142.03113036845696,
sequences/_initial_random.csv,1,90,1,3,red,,,,0,0,0,0,0,54,54,54,,,,,,,,,,,,,,,,,,,,,,,,,,,,,98.59249060000002,,,,,,,,,,,,,98.58641209999041,98.59249060000002,98.59249060000002,98.79307259999041,98.97681949999242,3,1,0.3808636000030674,None,98.97749229999317,98.9836454999895,98.9836454999895,99.1893001999997,99.39750609999464,99.39198829999077,99.3920470999874,99.39750609999464,,100.09283389999473,,,,,,,,,,,,,,,,,,,,,,,,,,,,,,,,,,,,,,,,,,,,,,,,,,,,,,,,,002,motor,5,0,2024-08-01_13h53.06.679,ASRT_motor,2023.2.3,142.03113036845696,
sequences/_initial_random.csv,2,180,2,2,red,,,,0,0,0,0,0,55,55,55,,,,,,,,,,,,,,,,,,,,,,,,,,,,,100.10040719999233,,,,,,,,,,,,,100.09353600000031,100.10040719999233,100.10040719999233,100.29751530000067,100.63064689999737,2,1,0.5260777999938,None,100.63142849999713,100.63942110000062,100.63942110000062,100.84235969999281,101.05011779999768,101.04421499998716,101.04424999999173,101.05011779999768,,101.74537879999843,,,,,,,,,,,,,,,,,,,,,,,,,,,,,,,,,,,,,,,,,,,,,,,,,,,,,,,,,002,motor,5,0,2024-08-01_13h53.06.679,ASRT_motor,2023.2.3,142.03113036845696,
sequences/_initial_random.csv,1,90,1,3,red,,,,0,0,0,0,0,56,56,56,,,,,,,,,,,,,,,,,,,,,,,,,,,,,101.75292079999053,,,,,,,,,,,,,101.74636520000058,101.75292079999053,101.75292079999053,101.95363039999211,102.10669789998792,3,1,0.3470149000058882,None,102.10718839999754,102.1123624999891,102.1123624999891,102.3222817999922,102.52921609999612,102.52333559999533,102.52336249999644,102.52921609999612,103.23056389999692,103.2236164999922,,,,,,,,,,,,,,,,,,,,,,,,,,,,,,,,,,,,,,,,,,,,,,,,,,,,,,,,,002,motor,5,0,2024-08-01_13h53.06.679,ASRT_motor,2023.2.3,142.03113036845696,
sequences/_initial_random.csv,3,270,3,1,red,,,,0,0,0,0,0,57,57,57,,,,,,,,,,,,,,,,,,,,,,,,,,,,,103.23056389999692,,,,,,,,,,,,,103.22384099999908,103.23056389999692,103.23056389999692,103.43275409999478,103.65839029999916,1,1,0.42409220000263304,None,103.65914930000145,103.66590659999929,103.66590659999929,103.869703999997,104.07804829999804,104.07180520000111,104.07182929999544,104.07804829999804,,104.77284700000018,,,,,,,,,,,,,,,,,,,,,,,,,,,,,,,,,,,,,,,,,,,,,,,,,,,,,,,,,002,motor,5,0,2024-08-01_13h53.06.679,ASRT_motor,2023.2.3,142.03113036845696,
sequences/_initial_random.csv,3,270,3,1,red,,,,0,0,0,0,0,58,58,58,,,,,,,,,,,,,,,,,,,,,,,,,,,,,104.77927069998987,,,,,,,,,,,,,104.77337199999602,104.77927069998987,104.77927069998987,104.98072110000066,105.18378729998949,1,1,0.3967986000061501,None,105.18433899999945,105.18905219998851,105.18905219998851,105.39744390000124,105.60543779999716,105.59899600000062,105.5990191999881,105.60543779999716,,106.30109309998807,,,,,,,,,,,,,,,,,,,,,,,,,,,,,,,,,,,,,,,,,,,,,,,,,,,,,,,,,002,motor,5,0,2024-08-01_13h53.06.679,ASRT_motor,2023.2.3,142.03113036845696,
sequences/_initial_random.csv,0,0,0,4,red,,,,0,0,0,0,0,59,59,59,,,,,,,,,,,,,,,,,,,,,,,,,,,,,106.30740059999516,,,,,,,,,,,,,106.30167419998907,106.30740059999516,106.30740059999516,106.50838759999897,106.75954020000063,4,1,0.44528889999492094,None,106.75998819999222,106.76528349998989,106.76528349998989,106.97370579998824,107.18205529999977,107.17634900000121,107.17638219999208,107.18205529999977,,107.87733479999588,,,,,,,,,,,,,,,,,,,,,,,,,,,,,,,,,,,,,,,,,,,,,,,,,,,,,,,,,002,motor,5,0,2024-08-01_13h53.06.679,ASRT_motor,2023.2.3,142.03113036845696,
sequences/_initial_random.csv,2,180,2,2,red,,,,0,0,0,0,0,60,60,60,,,,,,,,,,,,,,,,,,,,,,,,,,,,,107.88505359999544,,,,,,,,,,,,,107.87795949999418,107.88505359999544,107.88505359999544,108.08533380000154,108.37758279999252,2,1,0.48953209999308456,None,108.37805449998996,108.3830287999881,108.3830287999881,108.59159179999551,108.79988929998945,108.79314009999507,108.79315420000057,108.79988929998945,,109.49505230000068,,,,,,,,,,,,,,,,,,,,,,,,,,,,,,,,,,,,,,,,,,,,,,,,,,,,,,,,,002,motor,5,0,2024-08-01_13h53.06.679,ASRT_motor,2023.2.3,142.03113036845696,
sequences/_initial_random.csv,3,270,3,1,red,,,,0,0,0,0,0,61,61,61,,,,,,,,,,,,,,,,,,,,,,,,,,,,,109.50220979998994,,,,,,,,,,,,,109.49563649999618,109.50220979998994,109.50220979998994,109.70263919999707,109.87704719998874,1,1,0.37126319999515545,None,109.87734310000087,109.88310120000097,109.88310120000097,110.09166909998748,110.3000205999997,110.29421699998784,110.29424829999334,110.3000205999997,111.00099259999115,110.99444369999401,,,,,,,,,,,,,,,,,,,,,,,,,,,,,,,,,,,,,,,,,,,,,,,,,,,,,,,,,002,motor,5,0,2024-08-01_13h53.06.679,ASRT_motor,2023.2.3,142.03113036845696,
sequences/_initial_random.csv,2,180,2,2,red,,,,0,0,0,0,0,62,62,62,,,,,,,,,,,,,,,,,,,,,,,,,,,,,111.00099259999115,,,,,,,,,,,,,110.99478039999667,111.00099259999115,111.00099259999115,111.2025857999979,111.43416530000104,2,1,0.43005920000723563,None,111.43487849998928,111.44200909999199,111.44200909999199,111.64744919999794,111.85640219999186,111.85076279999339,111.85082139998849,111.85640219999186,112.55775919998996,112.55168299999787,,,,,,,,,,,,,,,,,,,,,,,,,,,,,,,,,,,,,,,,,,,,,,,,,,,,,,,,,002,motor,5,0,2024-08-01_13h53.06.679,ASRT_motor,2023.2.3,142.03113036845696,
sequences/_initial_random.csv,0,0,0,4,red,,,,0,0,0,0,0,63,63,63,,,,,,,,,,,,,,,,,,,,,,,,,,,,,112.55775919998996,,,,,,,,,,,,,112.5523450999899,112.55775919998996,112.55775919998996,112.75804629999038,112.89194259999203,4,1,0.328922100001364,None,112.89245289999235,112.89702899999975,112.89702899999975,113.10537720000139,113.31421179999597,113.30825679999543,113.3083031999995,113.31421179999597,,114.00891819999379,,,,,,,,,,,,,,,,,,,,,,,,,,,,,,,,,,,,,,,,,,,,,,,,,,,,,,,,,002,motor,5,0,2024-08-01_13h53.06.679,ASRT_motor,2023.2.3,142.03113036845696,
sequences/_initial_random.csv,1,90,1,3,red,,,,0,0,0,0,0,64,64,64,,,,,,,,,,,,,,,,,,,,,,,,,,,,,114.01511539999046,,,,,,,,,,,,,114.00954839999031,114.01511539999046,114.01511539999046,114.2166528999951,114.36995339998975,3,1,0.34873810000135563,None,114.37030409999716,114.37616379999963,114.37616379999963,114.58442739999737,114.79506140000012,114.78859679999005,114.78865329999826,114.79506140000012,115.49840769999719,115.48950429999968,,,,,,,,,,,,,,,,,,,,,,,,,,,,,,,,,,,,,,,,,,,,,,,,,,,,,,,,,002,motor,5,0,2024-08-01_13h53.06.679,ASRT_motor,2023.2.3,142.03113036845696,
sequences/_initial_random.csv,0,0,0,4,red,,,,0,0,0,0,0,65,65,65,,,,,,,,,,,,,,,,,,,,,,,,,,,,,115.49840769999719,,,,,,,,,,,,,115.49031369999284,115.49840769999719,115.49840769999719,115.70281449999311,115.98858389999077,4,1,0.4858223000046564,None,115.98904599998787,115.99393599999894,115.99393599999894,116.2039117999957,116.41132319999451,116.40576399999554,116.4058159999986,116.41132319999451,,117.10678550000011,,,,,,,,,,,,,,,,,,,,,,,,,,,,,,,,,,,,,,,,,,,,,,,,,,,,,,,,,002,motor,5,0,2024-08-01_13h53.06.679,ASRT_motor,2023.2.3,142.03113036845696,
sequences/_initial_random.csv,3,270,3,1,red,,,,0,0,0,0,0,66,66,66,,,,,,,,,,,,,,,,,,,,,,,,,,,,,117.11517679999815,,,,,,,,,,,,,117.10751219998929,117.11517679999815,117.11517679999815,117.32090209999296,117.46080279999296,1,1,0.3387490000022808,None,117.46123689999513,117.46642179999617,117.46642179999617,117.67534539999906,117.88403000000108,117.87855239999772,117.87860189999628,117.88403000000108,118.58640349999769,118.57885539998824,,,,,,,,,,,,,,,,,,,,,,,,,,,,,,,,,,,,,,,,,,,,,,,,,,,,,,,,,002,motor,5,0,2024-08-01_13h53.06.679,ASRT_motor,2023.2.3,142.03113036845696,
sequences/_initial_random.csv,0,0,0,4,red,,,,0,0,0,0,0,67,67,67,,,,,,,,,,,,,,,,,,,,,,,,,,,,,118.58640349999769,,,,,,,,,,,,,118.5794801999873,118.58640349999769,118.58640349999769,118.78568239999004,118.94927559999633,4,1,0.3604503999958979,None,118.94986769999377,118.9573345999961,118.9573345999961,119.16109549999237,119.36987829999998,119.36395389999961,119.36399800000072,119.36987829999998,,120.06453689999762,,,,,,,,,,,,,,,,,,,,,,,,,,,,,,,,,,,,,,,,,,,,,,,,,,,,,,,,,002,motor,5,0,2024-08-01_13h53.06.679,ASRT_motor,2023.2.3,142.03113036845696,
sequences/_initial_random.csv,3,270,3,1,red,,,,0,0,0,0,0,68,68,68,,,,,,,,,,,,,,,,,,,,,,,,,,,,,120.07067039998947,,,,,,,,,,,,,120.0651935999922,120.07067039998947,120.07067039998947,120.27203769999323,120.44002589999582,1,1,0.3625802000024123,None,120.4406874999986,120.44603729998926,120.44603729998926,120.65401699999347,120.86367729998892,120.85757689998718,120.85763669999142,120.86367729998892,121.5647151000012,121.55844039999647,,,,,,,,,,,,,,,,,,,,,,,,,,,,,,,,,,,,,,,,,,,,,,,,,,,,,,,,,002,motor,5,0,2024-08-01_13h53.06.679,ASRT_motor,2023.2.3,142.03113036845696,
sequences/_initial_random.csv,0,0,0,4,red,,,,0,0,0,0,0,69,69,69,,,,,,,,,,,,,,,,,,,,,,,,,,,,,121.5647151000012,,,,,,,,,,,,,121.55926259999978,121.5647151000012,121.5647151000012,121.76508679999097,121.89214149999316,4,1,0.3221876999887172,None,121.89283240000077,121.89848119999806,121.89848119999806,122.1052231999929,122.31447859999025,122.30871579999803,122.30874909998965,122.31447859999025,,123.00923250000051,,,,,,,,,,,,,,,,,,,,,,,,,,,,,,,,,,,,,,,,,,,,,,,,,,,,,,,,,002,motor,5,0,2024-08-01_13h53.06.679,ASRT_motor,2023.2.3,142.03113036845696,
sequences/_initial_random.csv,2,180,2,2,red,,,,0,0,0,0,0,70,70,70,,,,,,,,,,,,,,,,,,,,,,,,,,,,,123.01616239998839,,,,,,,,,,,,,123.00986839999678,123.01616239998839,123.01616239998839,123.2160748999886,123.66167570000107,2,1,0.6390811000019312,None,123.66211779999139,123.66770359998918,123.66770359998918,123.87700429999677,124.08466499998758,124.07942619999812,124.07947139999305,124.08466499998758,124.78545729999314,124.7795780999877,,,,,,,,,,,,,,,,,,,,,,,,,,,,,,,,,,,,,,,,,,,,,,,,,,,,,,,,,002,motor,5,0,2024-08-01_13h53.06.679,ASRT_motor,2023.2.3,142.03113036845696,
sequences/_initial_random.csv,0,0,0,4,red,,,,0,0,0,0,0,71,71,71,,,,,,,,,,,,,,,,,,,,,,,,,,,,,124.78545729999314,,,,,,,,,,,,,124.7798710999923,124.78545729999314,124.78545729999314,124.98707649999415,125.15530749999743,4,1,0.36233409999113064,None,125.15589949999412,125.16080689999217,125.16080689999217,125.36865949998901,125.57774239999708,125.5717020000011,125.57174269999086,125.57774239999708,,126.27190009999322,,,,,,,,,,,,,,,,,,,,,,,,,,,,,,,,,,,,,,,,,,,,,,,,,,,,,,,,,002,motor,5,0,2024-08-01_13h53.06.679,ASRT_motor,2023.2.3,142.03113036845696,
sequences/_initial_random.csv,0,0,0,4,red,,,,0,0,0,0,0,72,72,72,,,,,,,,,,,,,,,,,,,,,,,,,,,,,126.27875489999133,,,,,,,,,,,,,126.27235089999158,126.27875489999133,126.27875489999133,126.4799900999933,126.66509009999572,4,1,0.38281670000287704,None,126.6660101999878,126.6730838999938,126.6730838999938,126.87621999999101,127.08523359999526,127.07889799999248,127.07894279999891,127.08523359999526,127.78566959999443,127.77935489999072,,,,,,,,,,,,,,,,,,,,,,,,,,,,,,,,,,,,,,,,,,,,,,,,,,,,,,,,,002,motor,5,0,2024-08-01_13h53.06.679,ASRT_motor,2023.2.3,142.03113036845696,
sequences/_initial_random.csv,3,270,3,1,red,,,,0,0,0,0,0,73,73,73,,,,,,,,,,,,,,,,,,,,,,,,,,,,,127.78566959999443,,,,,,,,,,,,,127.77975950000109,127.78566959999443,127.78566959999443,127.98720109999704,128.12722470000153,1,1,0.33435710000048857,None,128.12760539999,128.1326163999911,128.1326163999911,128.3413087999943,128.55005459999666,128.54440269999031,128.5444475999975,128.55005459999666,129.250916399993,129.24454289999267,,,,,,,,,,,,,,,,,,,,,,,,,,,,,,,,,,,,,,,,,,,,,,,,,,,,,,,,,002,motor,5,0,2024-08-01_13h53.06.679,ASRT_motor,2023.2.3,142.03113036845696,
sequences/_initial_random.csv,2,180,2,2,red,,,,0,0,0,0,0,74,74,74,,,,,,,,,,,,,,,,,,,,,,,,,,,,,129.250916399993,,,,,,,,,,,,,129.24488649998966,129.250916399993,129.250916399993,129.45241939999687,129.8003941999923,2,1,0.5442182999977376,None,129.8008712999872,129.80620890000137,129.80620890000137,130.01529779999692,130.223419499991,130.2179646000004,130.21801069998764,130.223419499991,130.92445289999887,130.9180090000009,,,,,,,,,,,,,,,,,,,,,,,,,,,,,,,,,,,,,,,,,,,,,,,,,,,,,,,,,002,motor,5,0,2024-08-01_13h53.06.679,ASRT_motor,2023.2.3,142.03113036845696,
sequences/_initial_random.csv,0,0,0,4,red,,,,0,0,0,0,0,75,75,75,,,,,,,,,,,,,,,,,,,,,,,,,,,,,130.92445289999887,,,,,,,,,,,,,130.91839079999772,130.92445289999887,130.92445289999887,131.12598969999817,131.27385050000157,4,1,0.3444630000012694,None,131.27446279999276,131.2796565999888,131.2796565999888,131.48743389999436,131.695842000001,131.68980269999884,131.68984379999165,131.695842000001,,132.39001829999324,,,,,,,,,,,,,,,,,,,,,,,,,,,,,,,,,,,,,,,,,,,,,,,,,,,,,,,,,002,motor,5,0,2024-08-01_13h53.06.679,ASRT_motor,2023.2.3,142.03113036845696,
sequences/_initial_random.csv,3,270,3,1,red,,,,0,0,0,0,0,76,76,76,,,,,,,,,,,,,,,,,,,,,,,,,,,,,132.396943499989,,,,,,,,,,,,,132.39061329999822,132.396943499989,132.396943499989,132.5980486999906,132.76732179999817,1,1,0.36454999999841675,None,132.76806959998794,132.77692679999745,132.77692679999745,132.9801177999907,133.18825749999087,133.18186259998765,133.18188029999146,133.18825749999087,,133.88311209999665,,,,,,,,,,,,,,,,,,,,,,,,,,,,,,,,,,,,,,,,,,,,,,,,,,,,,,,,,002,motor,5,0,2024-08-01_13h53.06.679,ASRT_motor,2023.2.3,142.03113036845696,
sequences/_initial_random.csv,0,0,0,4,red,,,,0,0,0,0,0,77,77,77,,,,,,,,,,,,,,,,,,,,,,,,,,,,,133.88975489999575,,,,,,,,,,,,,133.88358029999654,133.88975489999575,133.88975489999575,134.09193389999564,134.23220199999923,4,1,0.34077500000421423,None,134.23332229998778,134.23823569998785,134.23823569998785,134.44590679999965,134.65359879999596,134.6479757999914,134.64802090000012,134.65359879999596,135.3546251999942,135.34817709999334,,,,,,,,,,,,,,,,,,,,,,,,,,,,,,,,,,,,,,,,,,,,,,,,,,,,,,,,,002,motor,5,0,2024-08-01_13h53.06.679,ASRT_motor,2023.2.3,142.03113036845696,
sequences/_initial_random.csv,0,0,0,4,red,,,,0,0,0,0,0,78,78,78,,,,,,,,,,,,,,,,,,,,,,,,,,,,,135.3546251999942,,,,,,,,,,,,,135.34845059999498,135.3546251999942,135.3546251999942,135.55651559999387,135.6783146999951,4,1,0.3201275000028545,None,135.6789476999984,135.68549679999705,135.68549679999705,135.89061429999128,136.09823059999326,136.0925384000002,136.09257889998844,136.09823059999326,136.7991861999908,136.79310629999964,,,,,,,,,,,,,,,,,,,,,,,,,,,,,,,,,,,,,,,,,,,,,,,,,,,,,,,,,002,motor,5,0,2024-08-01_13h53.06.679,ASRT_motor,2023.2.3,142.03113036845696,
sequences/_initial_random.csv,2,180,2,2,red,,,,0,0,0,0,0,79,79,79,,,,,,,,,,,,,,,,,,,,,,,,,,,,,136.7991861999908,,,,,,,,,,,,,136.79360579999047,136.7991861999908,136.7991861999908,137.0008547999896,137.46279079999658,2,1,0.660924800002249,None,137.4634178999986,137.4714077999961,137.4714077999961,137.67484199999308,137.8830725000007,137.87711659999331,137.87715819998994,137.8830725000007,,138.57753919999232,,,,,,,,,,,,,,,,,,,,,,,,,,,,,,,,,,,,,,,,,,,,,,,,,,,,,,,,,002,motor,5,0,2024-08-01_13h53.06.679,ASRT_motor,2023.2.3,142.03113036845696,
sequences/_initial_random.csv,3,270,3,1,red,,,,0,0,0,0,0,80,80,80,,,,,,,,,,,,,,,,,,,,,,,,,,,,,138.5838977999956,,,,,,,,,,,,,138.57813189999433,138.5838977999956,138.5838977999956,138.78633129999798,139.02570579999883,1,1,0.43851799999538343,None,139.02646470000036,139.03233499999624,139.03233499999624,139.23680269999022,139.44541359999857,139.43972999999824,139.43977519999316,139.44541359999857,,140.14058769999247,,,,,,,,,,,,,,,,,,,,,,,,,,,,,,,,,,,,,,,,,,,,,,,,,,,,,,,,,002,motor,5,0,2024-08-01_13h53.06.679,ASRT_motor,2023.2.3,142.03113036845696,
sequences/_initial_random.csv,2,180,2,2,red,,,,0,0,0,0,0,81,81,81,,,,,,,,,,,,,,,,,,,,,,,,,,,,,140.14747509999142,,,,,,,,,,,,,140.1413571000012,140.14747509999142,140.14747509999142,140.34837969999353,140.7533606999932,2,1,0.5989254000014625,None,140.75396159999946,140.7603059999965,140.7603059999965,140.96616539999377,141.17458249999618,141.16879879999033,141.1688346999872,141.17458249999618,,141.86932069998875,,,,,,,,,,,,,,,,,,,,,,,,,,,,,,,,,,,,,,,,,,,,,,,,,,,,,,,,,002,motor,5,0,2024-08-01_13h53.06.679,ASRT_motor,2023.2.3,142.03113036845696,
sequences/_initial_random.csv,0,0,0,4,red,,,,0,0,0,0,0,82,82,82,,,,,,,,,,,,,,,,,,,,,,,,,,,,,141.87861139999586,,,,,,,,,,,,,141.87005519999366,141.87861139999586,141.87861139999586,142.08431929998915,142.30067009999766,4,1,0.41478429999551736,None,142.3017523999879,142.3073626999976,142.3073626999976,142.51456129999133,142.7228705999878,142.7167655999947,142.7167991999886,142.7228705999878,,143.41756579998764,,,,,,,,,,,,,,,,,,,,,,,,,,,,,,,,,,,,,,,,,,,,,,,,,,,,,,,,,002,motor,5,0,2024-08-01_13h53.06.679,ASRT_motor,2023.2.3,142.03113036845696,
sequences/_initial_random.csv,2,180,2,2,red,,,,0,0,0,0,0,83,83,83,,,,,,,,,,,,,,,,,,,,,,,,,,,,,143.42429809999885,,,,,,,,,,,,,143.41807929999777,143.42429809999885,143.42429809999885,143.62597829999868,144.0171577000001,2,1,0.5899295999988681,None,144.01781689999916,144.02360919999774,144.02360919999774,144.22944229999848,144.4379057999904,144.43199269998877,144.43201819999376,144.4379057999904,,145.13310179999098,,,,,,,,,,,,,,,,,,,,,,,,,,,,,,,,,,,,,,,,,,,,,,,,,,,,,,,,,002,motor,5,0,2024-08-01_13h53.06.679,ASRT_motor,2023.2.3,142.03113036845696,
sequences/_initial_random.csv,3,270,3,1,red,,,,0,0,0,0,0,84,84,84,,,,,,,,,,,,,,,,,,,,,,,,,,,,,145.13974719999533,,,,,,,,,,,,,145.1336381000001,145.13974719999533,145.13974719999533,145.34121929999674,145.48150599999644,1,1,0.33561870000266936,None,145.4821310999978,145.4894623,145.4894623,145.69506790000014,145.90334469999652,145.89699689998815,145.8970285999967,145.90334469999652,,146.5981563999958,,,,,,,,,,,,,,,,,,,,,,,,,,,,,,,,,,,,,,,,,,,,,,,,,,,,,,,,,002,motor,5,0,2024-08-01_13h53.06.679,ASRT_motor,2023.2.3,142.03113036845696,
,,,,,,,,,,,,,,,,,,,,,,,,,,,,,,,,,,,,,,,,,,,,,,,,,,,,,,,,,,,,,,,,,,,,,,,,,,,,,146.5983494999964,146.63958999999159,146.63958999999159,150.64006099999824,158.57007649999287,space,11.925095099999453,None,158.57050229999004,158.57629779999843,158.57629779999843,158.57629779999843,177.14747089998855,space,18.56691989999672,None,,,,,,,,,,,,,,,,,,,,,,,,,,,,,,,,,,,,,,,,,002,motor,5,0,2024-08-01_13h53.06.679,ASRT_motor,2023.2.3,142.03113036845696,
,3,270,0,4,red,sequences/_practice_sequence_00.csv,,,,,,,,,,,0,0,0,0,0,0,0,67,,,,,,,,,,,,,,,,,,,,,178.17654079999193,,,,,,,,,,177.16636689999723,177.1691118999879,178.15284199999587,178.1724220999895,178.17654079999193,178.17654079999193,178.3816480999958,179.15322860000015,None,0,,,179.15434589999495,179.16735779999,179.16735779999,179.36788569999044,179.5761010999995,179.5696988999989,179.56972210000094,179.5761010999995,,180.27118459998746,,,,,,,,,,,,,,,,,,,,,,,,,,,,,,,,,,,,,,,,,,,,,,,,,,,,,,,,,002,motor,5,0,2024-08-01_13h53.06.679,ASRT_motor,2023.2.3,142.03113036845696,
,1,90,2,2,red,sequences/_practice_sequence_00.csv,,,,,,,,,,,0,0,0,0,0,1,1,80,,,,,,,,,,,,,,,,,,,,,180.27760109999508,,,,,,,,,,,,,180.27174739999464,180.27760109999508,180.27760109999508,180.478992999997,180.81469039998774,3,0,0.5345574999955716,None,180.8153908999957,180.82243709999602,180.82243709999602,181.02724429999944,181.23574499999813,181.22967719999724,181.22970609999902,181.23574499999813,,181.93104049999965,,,,,,,,,,,,,,,,,,,,,,,,,,,,,,,,,,,,,,,,,,,,,,,,,,,,,,,,,002,motor,5,0,2024-08-01_13h53.06.679,ASRT_motor,2023.2.3,142.03113036845696,
,0,0,1,3,red,sequences/_practice_sequence_00.csv,,,,,,,,,,,0,0,0,0,0,2,2,9,,,,,,,,,,,,,,,,,,,,,181.93987769998785,,,,,,,,,,,,,181.93179319999763,181.93987769998785,181.93987769998785,182.14577279999503,182.65435839998827,4,0,0.7099213000037707,None,182.65499159999308,182.66096809999726,182.66096809999726,182.867402399992,183.07622239999182,183.06980699999258,183.0698371999897,183.07622239999182,,183.77090039999166,,,,,,,,,,,,,,,,,,,,,,,,,,,,,,,,,,,,,,,,,,,,,,,,,,,,,,,,,002,motor,5,0,2024-08-01_13h53.06.679,ASRT_motor,2023.2.3,142.03113036845696,
,1,90,2,2,red,sequences/_practice_sequence_00.csv,,,,,,,,,,,0,0,0,0,0,3,3,59,,,,,,,,,,,,,,,,,,,,,183.77762699998857,,,,,,,,,,,,,183.77145649999147,183.77762699998857,183.77762699998857,183.9787770999974,184.43960729999526,3,0,0.6575809999922058,None,184.44025780000084,184.44731329999922,184.44731329999922,184.6525898999971,184.86111319999327,184.8551054999989,184.85513789999823,184.86111319999327,,185.5552361000009,,,,,,,,,,,,,,,,,,,,,,,,,,,,,,,,,,,,,,,,,,,,,,,,,,,,,,,,,002,motor,5,0,2024-08-01_13h53.06.679,ASRT_motor,2023.2.3,142.03113036845696,
,3,270,0,4,red,sequences/_practice_sequence_00.csv,,,,,,,,,,,0,0,0,0,0,4,4,11,,,,,,,,,,,,,,,,,,,,,185.56225119999726,,,,,,,,,,,,,185.55562699999427,185.56225119999726,185.56225119999726,185.7635988999973,186.50799589999951,4,1,0.9389174000098137,None,186.50857130000077,186.51445459999377,186.51445459999377,186.72178089999943,186.9301706999977,186.9239491999906,186.9239768999978,186.9301706999977,,187.62515169999097,,,,,,,,,,,,,,,,,,,,,,,,,,,,,,,,,,,,,,,,,,,,,,,,,,,,,,,,,002,motor,5,0,2024-08-01_13h53.06.679,ASRT_motor,2023.2.3,142.03113036845696,
,3,270,0,4,red,sequences/_practice_sequence_00.csv,,,,,,,,,,,0,0,0,0,0,5,5,78,,,,,,,,,,,,,,,,,,,,,187.63138849999814,,,,,,,,,,,,,187.62587910000002,187.63138849999814,187.63138849999814,187.83292390000133,188.44507149999845,4,1,0.808797699995921,None,188.44556429999648,188.45088069999474,188.45088069999474,188.65977879999264,188.86791580000136,188.86244799999986,188.86248909999267,188.86791580000136,189.56897429999663,189.56301389999862,,,,,,,,,,,,,,,,,,,,,,,,,,,,,,,,,,,,,,,,,,,,,,,,,,,,,,,,,002,motor,5,0,2024-08-01_13h53.06.679,ASRT_motor,2023.2.3,142.03113036845696,
,0,0,1,3,red,sequences/_practice_sequence_00.csv,,,,,,,,,,,0,0,0,0,0,6,6,56,,,,,,,,,,,,,,,,,,,,,189.56897429999663,,,,,,,,,,,,,189.5635048999975,189.56897429999663,189.56897429999663,189.7710403999954,190.4958287999907,3,1,0.9241292999940924,None,190.49647089999053,190.503939599992,190.503939599992,190.70796489999339,190.91645479999715,190.91050569999788,190.91054620000068,190.91645479999715,,191.61103609998827,,,,,,,,,,,,,,,,,,,,,,,,,,,,,,,,,,,,,,,,,,,,,,,,,,,,,,,,,002,motor,5,0,2024-08-01_13h53.06.679,ASRT_motor,2023.2.3,142.03113036845696,
,0,0,1,3,red,sequences/_practice_sequence_00.csv,,,,,,,,,,,0,0,0,0,0,7,7,12,,,,,,,,,,,,,,,,,,,,,191.61780100000033,,,,,,,,,,,,,191.61179039999843,191.61780100000033,191.61780100000033,191.81910169999173,192.08472809998784,3,1,0.4600906000123359,None,192.08536759999697,192.09013559999585,192.09013559999585,192.29809589999786,192.50702259999525,192.5005536999961,192.5005919999967,192.50702259999525,,193.20173570000043,,,,,,,,,,,,,,,,,,,,,,,,,,,,,,,,,,,,,,,,,,,,,,,,,,,,,,,,,002,motor,5,0,2024-08-01_13h53.06.679,ASRT_motor,2023.2.3,142.03113036845696,
,2,180,3,1,red,sequences/_practice_sequence_00.csv,,,,,,,,,,,0,0,0,0,0,8,8,62,,,,,,,,,,,,,,,,,,,,,193.20805129999644,,,,,,,,,,,,,193.20231719998992,193.20805129999644,193.20805129999644,193.4093436999974,193.6968682000006,1,1,0.4862581999914255,None,193.6974068999989,193.70378649998747,193.70378649998747,193.90897419999237,194.11748029998853,194.11153589999594,194.11156699999992,194.11748029998853,,194.81235709998873,,,,,,,,,,,,,,,,,,,,,,,,,,,,,,,,,,,,,,,,,,,,,,,,,,,,,,,,,002,motor,5,0,2024-08-01_13h53.06.679,ASRT_motor,2023.2.3,142.03113036845696,
,0,0,1,3,red,sequences/_practice_sequence_00.csv,,,,,,,,,,,0,0,0,0,0,9,9,35,,,,,,,,,,,,,,,,,,,,,194.81903549999697,,,,,,,,,,,,,194.81290759998956,194.81903549999697,194.81903549999697,195.02046659999178,195.2923482999904,4,0,0.4660342999995919,None,195.29273919999832,195.29824249999365,195.29824249999365,195.5059743999882,195.71489219999057,195.70854249999684,195.70857389998855,195.71489219999057,,196.4095837999921,,,,,,,,,,,,,,,,,,,,,,,,,,,,,,,,,,,,,,,,,,,,,,,,,,,,,,,,,002,motor,5,0,2024-08-01_13h53.06.679,ASRT_motor,2023.2.3,142.03113036845696,
,1,90,2,2,red,sequences/_practice_sequence_00.csv,,,,,,,,,,,0,0,0,0,0,10,10,39,,,,,,,,,,,,,,,,,,,,,196.4159243999893,,,,,,,,,,,,,196.41011589999835,196.4159243999893,196.4159243999893,196.6177400000015,197.31610409999848,2,1,0.8967064999887953,None,197.31674249999924,197.32533569999214,197.32533569999214,197.52760419998958,197.7356257999927,197.73010459999205,197.73014649999095,197.7356257999927,198.4364651999931,198.42994809999072,,,,,,,,,,,,,,,,,,,,,,,,,,,,,,,,,,,,,,,,,,,,,,,,,,,,,,,,,002,motor,5,0,2024-08-01_13h53.06.679,ASRT_motor,2023.2.3,142.03113036845696,
,3,270,0,4,red,sequences/_practice_sequence_00.csv,,,,,,,,,,,0,0,0,0,0,11,11,52,,,,,,,,,,,,,,,,,,,,,198.4364651999931,,,,,,,,,,,,,198.43018559999473,198.4364651999931,198.4364651999931,198.6384657999879,199.2939417000016,1,0,0.8515553999895928,None,199.29464119998738,199.3033693999896,199.3033693999896,199.50626009999542,199.71473539998988,199.70864399999846,199.70867709998856,199.71473539998988,,200.4094602999976,,,,,,,,,,,,,,,,,,,,,,,,,,,,,,,,,,,,,,,,,,,,,,,,,,,,,,,,,002,motor,5,0,2024-08-01_13h53.06.679,ASRT_motor,2023.2.3,142.03113036845696,
,2,180,3,1,red,sequences/_practice_sequence_00.csv,,,,,,,,,,,0,0,0,0,0,12,12,5,,,,,,,,,,,,,,,,,,,,,200.41602489999786,,,,,,,,,,,,,200.40998859998945,200.41602489999786,200.41602489999786,200.61734919999435,201.39764129999094,2,0,0.9771094000025187,None,201.3985790000006,201.4065283999953,201.4065283999953,201.61004970000067,201.81904419999046,201.8127506999881,201.81278609999572,201.81904419999046,,202.51301889999013,,,,,,,,,,,,,,,,,,,,,,,,,,,,,,,,,,,,,,,,,,,,,,,,,,,,,,,,,002,motor,5,0,2024-08-01_13h53.06.679,ASRT_motor,2023.2.3,142.03113036845696,
,3,270,0,4,red,sequences/_practice_sequence_00.csv,,,,,,,,,,,0,0,0,0,0,13,13,3,,,,,,,,,,,,,,,,,,,,,202.51987079999526,,,,,,,,,,,,,202.51348899998993,202.51987079999526,202.51987079999526,202.72147819999373,203.49569679998967,1,0,0.9734076999884564,None,203.4963587999955,203.50276619999204,203.50276619999204,203.70734009999433,203.91570939999656,203.90947069998947,203.90949289999844,203.91570939999656,,204.6108424999984,,,,,,,,,,,,,,,,,,,,,,,,,,,,,,,,,,,,,,,,,,,,,,,,,,,,,,,,,002,motor,5,0,2024-08-01_13h53.06.679,ASRT_motor,2023.2.3,142.03113036845696,
,2,180,3,1,red,sequences/_practice_sequence_00.csv,,,,,,,,,,,0,0,0,0,0,14,14,34,,,,,,,,,,,,,,,,,,,,,204.61726079999062,,,,,,,,,,,,,204.61143229999288,204.61726079999062,204.61726079999062,204.81865009998728,205.47375109999848,1,1,0.8512599999958184,None,205.47419459999946,205.47965579999436,205.47965579999436,205.68687779999163,205.89516619998903,205.88959169998998,205.88963179998973,205.89516619998903,206.59630269999616,206.58983529999387,,,,,,,,,,,,,,,,,,,,,,,,,,,,,,,,,,,,,,,,,,,,,,,,,,,,,,,,,002,motor,5,0,2024-08-01_13h53.06.679,ASRT_motor,2023.2.3,142.03113036845696,
,1,90,2,2,red,sequences/_practice_sequence_00.csv,,,,,,,,,,,0,0,0,0,0,15,15,79,,,,,,,,,,,,,,,,,,,,,206.59630269999616,,,,,,,,,,,,,206.59025549999205,206.59630269999616,206.59630269999616,206.79832849999366,207.49467169999843,3,0,0.8940870000078576,None,207.49536409998836,207.5046880000009,207.5046880000009,207.70776509999996,207.91555379999045,207.90877599999658,207.9087914999982,207.91555379999045,,208.6115751999896,,,,,,,,,,,,,,,,,,,,,,,,,,,,,,,,,,,,,,,,,,,,,,,,,,,,,,,,,002,motor,5,0,2024-08-01_13h53.06.679,ASRT_motor,2023.2.3,142.03113036845696,
,3,270,0,4,red,sequences/_practice_sequence_00.csv,,,,,,,,,,,0,0,0,0,0,16,16,37,,,,,,,,,,,,,,,,,,,,,208.61766229999193,,,,,,,,,,,,,208.61217219999526,208.61766229999193,208.61766229999193,208.81860339999548,209.45250309999392,4,1,0.8312787000031676,None,209.45312399999239,209.45934950000083,209.45934950000083,209.66619319999882,209.87432249999256,209.86845169999287,209.8684799999901,209.87432249999256,210.57529870000144,210.56835619999038,,,,,,,,,,,,,,,,,,,,,,,,,,,,,,,,,,,,,,,,,,,,,,,,,,,,,,,,,002,motor,5,0,2024-08-01_13h53.06.679,ASRT_motor,2023.2.3,142.03113036845696,
,3,270,0,4,red,sequences/_practice_sequence_00.csv,,,,,,,,,,,0,0,0,0,0,17,17,24,,,,,,,,,,,,,,,,,,,,,210.57529870000144,,,,,,,,,,,,,210.56862439999531,210.57529870000144,210.57529870000144,210.77717299999495,211.11839439999312,4,1,0.535856500006048,None,211.11905589999515,211.12375439998868,211.12375439998868,211.33249679999426,211.54097279999405,211.53512889999547,211.53517170000123,211.54097279999405,,212.23552079999354,,,,,,,,,,,,,,,,,,,,,,,,,,,,,,,,,,,,,,,,,,,,,,,,,,,,,,,,,002,motor,5,0,2024-08-01_13h53.06.679,ASRT_motor,2023.2.3,142.03113036845696,
,2,180,3,1,red,sequences/_practice_sequence_00.csv,,,,,,,,,,,0,0,0,0,0,18,18,19,,,,,,,,,,,,,,,,,,,,,212.24230049998732,,,,,,,,,,,,,212.23605419999512,212.24230049998732,212.24230049998732,212.44361750000098,213.23529620000045,None,0,,,213.23548709999886,213.2417626999959,213.2417626999959,213.4501409999939,213.6583615999989,213.65178919999744,213.65180319998763,213.6583615999989,,214.35330370000156,,,,,,,,,,,,,,,,,213.2417626999959,,,,,,,,,,,,,,,,,,,,,,,,,,,,,,,,,,,,,,,,002,motor,5,0,2024-08-01_13h53.06.679,ASRT_motor,2023.2.3,142.03113036845696,
,3,270,0,4,red,sequences/_practice_sequence_00.csv,,,,,,,,,,,0,0,0,0,0,19,19,81,,,,,,,,,,,,,,,,,,,,,214.36065379998763,,,,,,,,,,,,,214.35385379999934,214.36065379998763,214.36065379998763,214.56138099999225,214.93052629999875,4,1,0.5646698999917135,None,214.93085429999337,214.9361038999923,214.9361038999923,215.1449663999956,215.35376309999265,215.34708139998838,215.34711209998932,215.35376309999265,,216.04754390000016,,,,,,,,,,,,,,,,,,,,,,,,,,,,,,,,,,,,,,,,,,,,,,,,,,,,,,,,,002,motor,5,0,2024-08-01_13h53.06.679,ASRT_motor,2023.2.3,142.03113036845696,
,3,270,0,4,red,sequences/_practice_sequence_00.csv,,,,,,,,,,,0,0,0,0,0,20,20,25,,,,,,,,,,,,,,,,,,,,,216.05427969999437,,,,,,,,,,,,,216.04789339999843,216.05427969999437,216.05427969999437,216.2556412999984,216.57143919999362,4,1,0.5135791999928188,None,216.57255449998775,216.58051989998785,216.58051989998785,216.78385409999464,216.9915949999995,216.98511169999256,216.9851337,216.9915949999995,,217.68633959999715,,,,,,,,,,,,,,,,,,,,,,,,,,,,,,,,,,,,,,,,,,,,,,,,,,,,,,,,,002,motor,5,0,2024-08-01_13h53.06.679,ASRT_motor,2023.2.3,142.03113036845696,
,0,0,1,3,red,sequences/_practice_sequence_00.csv,,,,,,,,,,,0,0,0,0,0,21,21,54,,,,,,,,,,,,,,,,,,,,,217.69316439999966,,,,,,,,,,,,,217.68677039998875,217.69316439999966,217.69316439999966,217.89498959999764,218.23668149999867,3,1,0.5360165000020061,None,218.23719089999213,218.24275849999685,218.24275849999685,218.45047609999892,218.6585677999974,218.6533325999917,218.6533696999977,218.6585677999974,,219.35410639998736,,,,,,,,,,,,,,,,,,,,,,,,,,,,,,,,,,,,,,,,,,,,,,,,,,,,,,,,,002,motor,5,0,2024-08-01_13h53.06.679,ASRT_motor,2023.2.3,142.03113036845696,
,1,90,2,2,red,sequences/_practice_sequence_00.csv,,,,,,,,,,,0,0,0,0,0,22,22,23,,,,,,,,,,,,,,,,,,,,,219.3611891999899,,,,,,,,,,,,,219.35521919999155,219.3611891999899,219.3611891999899,219.56188549999206,220.1042266000004,2,1,0.74133950000396,None,220.1045979999908,220.10973339999327,220.10973339999327,220.31811789999483,220.52678289999312,220.52096789999632,220.52100490000157,220.52678289999312,,221.2214696999872,,,,,,,,,,,,,,,,,,,,,,,,,,,,,,,,,,,,,,,,,,,,,,,,,,,,,,,,,002,motor,5,0,2024-08-01_13h53.06.679,ASRT_motor,2023.2.3,142.03113036845696,
,1,90,2,2,red,sequences/_practice_sequence_00.csv,,,,,,,,,,,0,0,0,0,0,23,23,48,,,,,,,,,,,,,,,,,,,,,221.22801399999298,,,,,,,,,,,,,221.22202059999108,221.22801399999298,221.22801399999298,221.42907969999942,221.80513389999396,3,0,0.5713072000071406,None,221.80553040000086,221.81231039999693,221.81231039999693,222.01963819999946,222.22801209999307,222.22193020000122,222.2219582999969,222.22801209999307,,222.92243729998881,,,,,,,,,,,,,,,,,,,,,,,,,,,,,,,,,,,,,,,,,,,,,,,,,,,,,,,,,002,motor,5,0,2024-08-01_13h53.06.679,ASRT_motor,2023.2.3,142.03113036845696,
,0,0,1,3,red,sequences/_practice_sequence_00.csv,,,,,,,,,,,0,0,0,0,0,24,24,47,,,,,,,,,,,,,,,,,,,,,222.92930009998963,,,,,,,,,,,,,222.9226803999918,222.92930009998963,222.92930009998963,223.13054980000015,223.56866669999727,3,1,0.6340937000059057,None,223.56897839999874,223.57468049999443,223.57468049999443,223.78369830000156,223.99186879998888,223.98623119998956,223.98626529998728,223.99186879998888,224.69294719999016,224.68649609999557,,,,,,,,,,,,,,,,,,,,,,,,,,,,,,,,,,,,,,,,,,,,,,,,,,,,,,,,,002,motor,5,0,2024-08-01_13h53.06.679,ASRT_motor,2023.2.3,142.03113036845696,
,2,180,3,1,red,sequences/_practice_sequence_00.csv,,,,,,,,,,,0,0,0,0,0,25,25,83,,,,,,,,,,,,,,,,,,,,,224.69294719999016,,,,,,,,,,,,,224.68675969999458,224.69294719999016,224.69294719999016,224.89508959998784,225.0907293999917,1,1,0.39274680000380613,None,225.09147659999144,225.09707569998864,225.09707569998864,225.30452959999093,225.51255839999067,225.50676509999903,225.50680289999582,225.51255839999067,,226.20724150000024,,,,,,,,,,,,,,,,,,,,,,,,,,,,,,,,,,,,,,,,,,,,,,,,,,,,,,,,,002,motor,5,0,2024-08-01_13h53.06.679,ASRT_motor,2023.2.3,142.03113036845696,
,0,0,1,3,red,sequences/_practice_sequence_00.csv,,,,,,,,,,,0,0,0,0,0,26,26,1,,,,,,,,,,,,,,,,,,,,,226.21403170000121,,,,,,,,,,,,,226.20770629998879,226.21403170000121,226.21403170000121,226.41557420000026,227.04067249999207,4,0,0.8237980999983847,None,227.04094130000158,227.04699809999147,227.04699809999147,227.25541800000065,227.46414459998778,227.4580844999873,227.4581218999956,227.46414459998778,,228.15902189999179,,,,,,,,,,,,,,,,,,,,,,,,,,,,,,,,,,,,,,,,,,,,,,,,,,,,,,,,,002,motor,5,0,2024-08-01_13h53.06.679,ASRT_motor,2023.2.3,142.03113036845696,
,1,90,2,2,red,sequences/_practice_sequence_00.csv,,,,,,,,,,,0,0,0,0,0,27,27,53,,,,,,,,,,,,,,,,,,,,,228.16552809999848,,,,,,,,,,,,,228.1595290999976,228.16552809999848,228.16552809999848,228.3667531999963,228.92359320000105,4,0,0.7507914000016171,None,228.92432700000063,228.92912969998724,228.92912969998724,229.13784489998943,229.3460897999903,229.34018569999898,229.34022579999873,229.3460897999903,,230.04113589999906,,,,,,,,,,,,,,,,,,,,,,,,,,,,,,,,,,,,,,,,,,,,,,,,,,,,,,,,,002,motor,5,0,2024-08-01_13h53.06.679,ASRT_motor,2023.2.3,142.03113036845696,
,1,90,2,2,red,sequences/_practice_sequence_00.csv,,,,,,,,,,,0,0,0,0,0,28,28,32,,,,,,,,,,,,,,,,,,,,,230.04754089999187,,,,,,,,,,,,,230.04181409999728,230.04754089999187,230.04754089999187,230.24923039998976,230.82651459999033,2,1,0.7778984000033233,None,230.82677659999172,230.83164140000008,230.83164140000008,231.04034379999212,231.24835949999397,231.24232109999866,231.24234889999207,231.24835949999397,,231.9434639999963,,,,,,,,,,,,,,,,,,,,,,,,,,,,,,,,,,,,,,,,,,,,,,,,,,,,,,,,,002,motor,5,0,2024-08-01_13h53.06.679,ASRT_motor,2023.2.3,142.03113036845696,
,1,90,2,2,red,sequences/_practice_sequence_00.csv,,,,,,,,,,,0,0,0,0,0,29,29,55,,,,,,,,,,,,,,,,,,,,,231.950041899996,,,,,,,,,,,,,231.94405109999934,231.950041899996,231.950041899996,232.151712699997,232.47875109998859,2,1,0.5237000000051921,None,232.47919829998864,232.4843508999911,232.4843508999911,232.69307670000126,232.9017751999927,232.89576089999173,232.89579749999393,232.9017751999927,,233.59834889999183,,,,,,,,,,,,,,,,,,,,,,,,,,,,,,,,,,,,,,,,,,,,,,,,,,,,,,,,,002,motor,5,0,2024-08-01_13h53.06.679,ASRT_motor,2023.2.3,142.03113036845696,
,0,0,1,3,red,sequences/_practice_sequence_00.csv,,,,,,,,,,,0,0,0,0,0,30,30,68,,,,,,,,,,,,,,,,,,,,,233.60808759999054,,,,,,,,,,,,,233.5992922000005,233.60808759999054,233.60808759999054,233.81162909998966,234.2217668999947,3,1,0.612000099994475,None,234.22210719999566,234.22768919999362,234.22768919999362,234.43653559999075,234.64410959999077,234.63770389999263,234.63772149999568,234.64410959999077,,235.3391794999916,,,,,,,,,,,,,,,,,,,,,,,,,,,,,,,,,,,,,,,,,,,,,,,,,,,,,,,,,002,motor,5,0,2024-08-01_13h53.06.679,ASRT_motor,2023.2.3,142.03113036845696,
,3,270,0,4,red,sequences/_practice_sequence_00.csv,,,,,,,,,,,0,0,0,0,0,31,31,76,,,,,,,,,,,,,,,,,,,,,235.34571919999144,,,,,,,,,,,,,235.33973519998835,235.34571919999144,235.34571919999144,235.54686769998807,236.06928869998956,1,0,0.7171592000086093,None,236.0698221999919,236.07777589999023,236.07777589999023,236.28348299999197,236.49187669999083,236.48620559999836,236.48624679999193,236.49187669999083,237.1927668999997,237.18666319998738,,,,,,,,,,,,,,,,,,,,,,,,,,,,,,,,,,,,,,,,,,,,,,,,,,,,,,,,,002,motor,5,0,2024-08-01_13h53.06.679,ASRT_motor,2023.2.3,142.03113036845696,
,1,90,2,2,red,sequences/_practice_sequence_00.csv,,,,,,,,,,,0,0,0,0,0,32,32,38,,,,,,,,,,,,,,,,,,,,,237.1927668999997,,,,,,,,,,,,,237.18753859998833,237.1927668999997,237.1927668999997,237.39456649999192,237.77100389999396,3,0,0.573486099994625,None,237.77156869998726,237.77602469999692,237.77602469999692,237.98474839999108,238.1931518999918,238.187371299995,238.1874095999956,238.1931518999918,238.89430329999595,238.88781259999087,,,,,,,,,,,,,,,,,,,,,,,,,,,,,,,,,,,,,,,,,,,,,,,,,,,,,,,,,002,motor,5,0,2024-08-01_13h53.06.679,ASRT_motor,2023.2.3,142.03113036845696,
,3,270,0,4,red,sequences/_practice_sequence_00.csv,,,,,,,,,,,0,0,0,0,0,33,33,50,,,,,,,,,,,,,,,,,,,,,238.89430329999595,,,,,,,,,,,,,238.88820719999785,238.89430329999595,238.89430329999595,239.0962118999887,239.6662590999913,4,1,0.7670134000072721,None,239.66677309999068,239.67198629998893,239.67198629998893,239.88010769999528,240.08899910000036,240.08250759998919,240.08254309999757,240.08899910000036,,240.78344479999214,,,,,,,,,,,,,,,,,,,,,,,,,,,,,,,,,,,,,,,,,,,,,,,,,,,,,,,,,002,motor,5,0,2024-08-01_13h53.06.679,ASRT_motor,2023.2.3,142.03113036845696,
,1,90,2,2,red,sequences/_practice_sequence_00.csv,,,,,,,,,,,0,0,0,0,0,34,34,31,,,,,,,,,,,,,,,,,,,,,240.78996939999342,,,,,,,,,,,,,240.78410689999873,240.78996939999342,240.78996939999342,240.99186869998812,241.5793590999965,2,1,0.7834519000025466,None,241.580461199992,241.59169499999552,241.59169499999552,241.79041570000118,241.99857129999145,241.99290059998748,241.99293609999586,241.99857129999145,242.6996317000012,242.69358849999844,,,,,,,,,,,,,,,,,,,,,,,,,,,,,,,,,,,,,,,,,,,,,,,,,,,,,,,,,002,motor,5,0,2024-08-01_13h53.06.679,ASRT_motor,2023.2.3,142.03113036845696,
,2,180,3,1,red,sequences/_practice_sequence_00.csv,,,,,,,,,,,0,0,0,0,0,35,35,69,,,,,,,,,,,,,,,,,,,,,242.6996317000012,,,,,,,,,,,,,242.6940700999985,242.6996317000012,242.6996317000012,242.90114170000015,243.32135469999048,1,1,0.6190243000019109,None,243.32217269999092,243.33019819999754,243.33019819999754,243.53310629999032,243.7418297999975,243.73576969999704,243.7358058999962,243.7418297999975,,244.43627639999613,,,,,,,,,,,,,,,,,,,,,,,,,,,,,,,,,,,,,,,,,,,,,,,,,,,,,,,,,002,motor,5,0,2024-08-01_13h53.06.679,ASRT_motor,2023.2.3,142.03113036845696,
,2,180,3,1,red,sequences/_practice_sequence_00.csv,,,,,,,,,,,0,0,0,0,0,36,36,4,,,,,,,,,,,,,,,,,,,,,244.44419619999826,,,,,,,,,,,,,244.43707029998768,244.44419619999826,244.44419619999826,244.64471899998898,244.94555659999605,1,1,0.4978919999994105,None,244.9461336999957,244.95254509999359,244.95254509999359,245.15814590000082,245.3662667999888,245.36005429999204,245.36007889999019,245.3662667999888,,246.06139919999987,,,,,,,,,,,,,,,,,,,,,,,,,,,,,,,,,,,,,,,,,,,,,,,,,,,,,,,,,002,motor,5,0,2024-08-01_13h53.06.679,ASRT_motor,2023.2.3,142.03113036845696,
,1,90,2,2,red,sequences/_practice_sequence_00.csv,,,,,,,,,,,0,0,0,0,0,37,37,22,,,,,,,,,,,,,,,,,,,,,246.06771249999292,,,,,,,,,,,,,246.06187919998774,246.06771249999292,246.06771249999292,246.2690758999961,246.86795159999747,2,1,0.7930805999931181,None,246.8684940999956,246.87354859999323,246.87354859999323,247.08138629999303,247.28995749999012,247.2846775999933,247.28471919998992,247.28995749999012,247.99123809998855,247.9854670999921,,,,,,,,,,,,,,,,,,,,,,,,,,,,,,,,,,,,,,,,,,,,,,,,,,,,,,,,,002,motor,5,0,2024-08-01_13h53.06.679,ASRT_motor,2023.2.3,142.03113036845696,
,0,0,1,3,red,sequences/_practice_sequence_00.csv,,,,,,,,,,,0,0,0,0,0,38,38,46,,,,,,,,,,,,,,,,,,,,,247.99123809998855,,,,,,,,,,,,,247.98599109999486,247.99123809998855,247.99123809998855,248.1926237000007,248.70825949999562,3,1,0.7100097000075039,None,248.70880799999577,248.71435460000066,248.71435460000066,248.92224349999742,249.1300765999913,249.12493279999762,249.12496679999458,249.1300765999913,249.8313266999903,249.82575849999557,,,,,,,,,,,,,,,,,,,,,,,,,,,,,,,,,,,,,,,,,,,,,,,,,,,,,,,,,002,motor,5,0,2024-08-01_13h53.06.679,ASRT_motor,2023.2.3,142.03113036845696,
,3,270,0,4,red,sequences/_practice_sequence_00.csv,,,,,,,,,,,0,0,0,0,0,39,39,66,,,,,,,,,,,,,,,,,,,,,249.8313266999903,,,,,,,,,,,,,249.82627249999496,249.8313266999903,249.8313266999903,250.03413459999138,250.4100555999903,1,0,0.5709226000035414,None,250.41058450000128,250.41848670000036,250.41848670000036,250.62328339999658,250.8316771999962,250.82574609998846,250.82578159999684,250.8316771999962,,251.52600399999938,,,,,,,,,,,,,,,,,,,,,,,,,,,,,,,,,,,,,,,,,,,,,,,,,,,,,,,,,002,motor,5,0,2024-08-01_13h53.06.679,ASRT_motor,2023.2.3,142.03113036845696,
,0,0,1,3,red,sequences/_practice_sequence_00.csv,,,,,,,,,,,0,0,0,0,0,40,40,84,,,,,,,,,,,,,,,,,,,,,251.53299709998828,,,,,,,,,,,,,251.52643539999553,251.53299709998828,251.53299709998828,251.7343292000005,252.12532869999995,3,1,0.5863297000032617,None,252.12584480000078,252.1312756999978,252.1312756999978,252.33833429998776,252.546663599991,252.5419111999945,252.541948699989,252.546663599991,253.25128089998907,253.24300370000128,,,,,,,,,,,,,,,,,,,,,,,,,,,,,,,,,,,,,,,,,,,,,,,,,,,,,,,,,002,motor,5,0,2024-08-01_13h53.06.679,ASRT_motor,2023.2.3,142.03113036845696,
,2,180,3,1,red,sequences/_practice_sequence_00.csv,,,,,,,,,,,0,0,0,0,0,41,41,8,,,,,,,,,,,,,,,,,,,,,253.25128089998907,,,,,,,,,,,,,253.2438734999887,253.25128089998907,253.25128089998907,253.45660799999314,253.8541128999932,1,1,0.5957894000021042,None,253.85473159998946,253.86061819999304,253.86061819999304,254.067541899989,254.27575589998742,254.2695296999882,254.26955369999632,254.27575589998742,,254.9720430999878,,,,,,,,,,,,,,,,,,,,,,,,,,,,,,,,,,,,,,,,,,,,,,,,,,,,,,,,,002,motor,5,0,2024-08-01_13h53.06.679,ASRT_motor,2023.2.3,142.03113036845696,
,1,90,2,2,red,sequences/_practice_sequence_00.csv,,,,,,,,,,,0,0,0,0,0,42,42,49,,,,,,,,,,,,,,,,,,,,,254.97865530000126,,,,,,,,,,,,,254.97270119999303,254.97865530000126,254.97865530000126,255.17890039998747,255.62342609999178,2,1,0.6424463000003016,None,255.62369279999984,255.6297431999992,255.6297431999992,255.83826989999216,256.0468734999886,256.04083759999776,256.0408671999903,256.0468734999886,,256.74136590000126,,,,,,,,,,,,,,,,,,,,,,,,,,,,,,,,,,,,,,,,,,,,,,,,,,,,,,,,,002,motor,5,0,2024-08-01_13h53.06.679,ASRT_motor,2023.2.3,142.03113036845696,
,0,0,1,3,red,sequences/_practice_sequence_00.csv,,,,,,,,,,,0,0,0,0,0,43,43,2,,,,,,,,,,,,,,,,,,,,,256.7489484999969,,,,,,,,,,,,,256.7420277999918,256.7489484999969,256.7489484999969,256.949265999996,257.64008469998953,3,1,0.8832522000011522,None,257.6406569999963,257.6463003999961,257.6463003999961,257.85287039999093,258.0613292999915,258.0558805999899,258.0559382999927,258.0613292999915,258.7618402999942,258.75564979999035,,,,,,,,,,,,,,,,,,,,,,,,,,,,,,,,,,,,,,,,,,,,,,,,,,,,,,,,,002,motor,5,0,2024-08-01_13h53.06.679,ASRT_motor,2023.2.3,142.03113036845696,
,2,180,3,1,red,sequences/_practice_sequence_00.csv,,,,,,,,,,,0,0,0,0,0,44,44,58,,,,,,,,,,,,,,,,,,,,,258.7618402999942,,,,,,,,,,,,,258.75619919999735,258.7618402999942,258.7618402999942,258.96423810000124,259.3057789000013,1,1,0.5403701000032015,None,259.30631529999664,259.31184660000145,259.31184660000145,259.51904129999457,259.7271793999971,259.720951899988,259.7209811999928,259.7271793999971,,260.42218519999005,,,,,,,,,,,,,,,,,,,,,,,,,,,,,,,,,,,,,,,,,,,,,,,,,,,,,,,,,002,motor,5,0,2024-08-01_13h53.06.679,ASRT_motor,2023.2.3,142.03113036845696,
,2,180,3,1,red,sequences/_practice_sequence_00.csv,,,,,,,,,,,0,0,0,0,0,45,45,6,,,,,,,,,,,,,,,,,,,,,260.4283216999902,,,,,,,,,,,,,260.4227828000003,260.4283216999902,260.4283216999902,260.6300962999958,260.9599531999993,1,1,0.5289128000003984,None,260.96065189999354,260.9670208999887,260.9670208999887,261.17140959999233,261.38072249999095,261.374212499999,261.374253099988,261.38072249999095,,262.075136799991,,,,,,,,,,,,,,,,,,,,,,,,,,,,,,,,,,,,,,,,,,,,,,,,,,,,,,,,,002,motor,5,0,2024-08-01_13h53.06.679,ASRT_motor,2023.2.3,142.03113036845696,
,1,90,2,2,red,sequences/_practice_sequence_00.csv,,,,,,,,,,,0,0,0,0,0,46,46,18,,,,,,,,,,,,,,,,,,,,,262.0836520999874,,,,,,,,,,,,,262.0758291999955,262.0836520999874,262.0836520999874,262.2897704999923,262.5986237999896,3,0,0.5114766000042437,None,262.5993140999926,262.6120341999922,262.6120341999922,262.810974299995,263.01858209999045,263.0122315999906,263.01225849999173,263.01858209999045,,263.713740399995,,,,,,,,,,,,,,,,,,,,,,,,,,,,,,,,,,,,,,,,,,,,,,,,,,,,,,,,,002,motor,5,0,2024-08-01_13h53.06.679,ASRT_motor,2023.2.3,142.03113036845696,
,2,180,3,1,red,sequences/_practice_sequence_00.csv,,,,,,,,,,,0,0,0,0,0,47,47,21,,,,,,,,,,,,,,,,,,,,,263.7199876999948,,,,,,,,,,,,,263.71428429998923,263.7199876999948,263.7199876999948,263.9225243999972,264.416522399988,1,1,0.6944820000062464,None,264.41696319999755,264.4215300999931,264.4215300999931,264.62959569999657,264.83840609999606,264.8328179999953,264.8328519999923,264.83840609999606,,265.53313779999735,,,,,,,,,,,,,,,,,,,,,,,,,,,,,,,,,,,,,,,,,,,,,,,,,,,,,,,,,002,motor,5,0,2024-08-01_13h53.06.679,ASRT_motor,2023.2.3,142.03113036845696,
,3,270,0,4,red,sequences/_practice_sequence_00.csv,,,,,,,,,,,0,0,0,0,0,48,48,71,,,,,,,,,,,,,,,,,,,,,265.5411701999983,,,,,,,,,,,,,265.5339171999949,265.5411701999983,265.5411701999983,265.74158319999697,266.298804799997,4,1,0.7513997000060044,None,266.2995758999896,266.3049495999876,266.3049495999876,266.5122231999994,266.7202045000013,266.71333899999445,266.7133640999964,266.7202045000013,,267.41423049999867,,,,,,,,,,,,,,,,,,,,,,,,,,,,,,,,,,,,,,,,,,,,,,,,,,,,,,,,,002,motor,5,0,2024-08-01_13h53.06.679,ASRT_motor,2023.2.3,142.03113036845696,
,0,0,1,3,red,sequences/_practice_sequence_00.csv,,,,,,,,,,,0,0,0,0,0,49,49,28,,,,,,,,,,,,,,,,,,,,,267.42114859999856,,,,,,,,,,,,,267.41454479999084,267.42114859999856,267.42114859999856,267.6227365999948,268.00149789999705,3,1,0.5753924000018742,None,268.0025161999947,268.0084491000016,268.0084491000016,268.2132360999967,268.42164950000006,268.41592529999616,268.4159673999966,268.42164950000006,269.1226813999965,269.1163239000016,,,,,,,,,,,,,,,,,,,,,,,,,,,,,,,,,,,,,,,,,,,,,,,,,,,,,,,,,002,motor,5,0,2024-08-01_13h53.06.679,ASRT_motor,2023.2.3,142.03113036845696,
,2,180,3,1,red,sequences/_practice_sequence_00.csv,,,,,,,,,,,0,0,0,0,0,50,50,15,,,,,,,,,,,,,,,,,,,,,269.1226813999965,,,,,,,,,,,,,269.1168939999916,269.1226813999965,269.1226813999965,269.32443149999017,269.6254106999986,1,1,0.5000843000016175,None,269.6260998999933,269.63247329999285,269.63247329999285,269.8382755999919,270.04640279999876,270.03986079999595,270.03989189999993,270.04640279999876,,270.7412417999876,,,,,,,,,,,,,,,,,,,,,,,,,,,,,,,,,,,,,,,,,,,,,,,,,,,,,,,,,002,motor,5,0,2024-08-01_13h53.06.679,ASRT_motor,2023.2.3,142.03113036845696,
,3,270,0,4,red,sequences/_practice_sequence_00.csv,,,,,,,,,,,0,0,0,0,0,51,51,74,,,,,,,,,,,,,,,,,,,,,270.74837169999955,,,,,,,,,,,,,270.7419774000009,270.74837169999955,270.74837169999955,270.94986949999293,271.5142613999924,1,0,0.758119699996314,None,271.51513479999267,271.5278113999957,271.5278113999957,271.7269260999892,271.934949699993,271.9285560999997,271.9285792999872,271.934949699993,,272.6297879999911,,,,,,,,,,,,,,,,,,,,,,,,,,,,,,,,,,,,,,,,,,,,,,,,,,,,,,,,,002,motor,5,0,2024-08-01_13h53.06.679,ASRT_motor,2023.2.3,142.03113036845696,
,0,0,1,3,red,sequences/_practice_sequence_00.csv,,,,,,,,,,,0,0,0,0,0,52,52,63,,,,,,,,,,,,,,,,,,,,,272.6368852000014,,,,,,,,,,,,,272.6303603999986,272.6368852000014,272.6368852000014,272.838619999995,273.25566049999907,3,1,0.6131586999981664,None,273.25610849999066,273.26137179999205,273.26137179999205,273.46988049999345,273.6784316999983,273.6728695999918,273.6729096999916,273.6784316999983,,274.37372469999536,,,,,,,,,,,,,,,,,,,,,,,,,,,,,,,,,,,,,,,,,,,,,,,,,,,,,,,,,002,motor,5,0,2024-08-01_13h53.06.679,ASRT_motor,2023.2.3,142.03113036845696,
,2,180,3,1,red,sequences/_practice_sequence_00.csv,,,,,,,,,,,0,0,0,0,0,53,53,41,,,,,,,,,,,,,,,,,,,,,274.3833695999929,,,,,,,,,,,,,274.37453699999605,274.3833695999929,274.3833695999929,274.58756169999833,274.805355199991,1,1,0.4191817000100855,None,274.80595539999194,274.81111679998867,274.81111679998867,275.0183580999874,275.22756949999894,275.2218780999974,275.22192409999843,275.22756949999894,,275.92255069999374,,,,,,,,,,,,,,,,,,,,,,,,,,,,,,,,,,,,,,,,,,,,,,,,,,,,,,,,,002,motor,5,0,2024-08-01_13h53.06.679,ASRT_motor,2023.2.3,142.03113036845696,
,2,180,3,1,red,sequences/_practice_sequence_00.csv,,,,,,,,,,,0,0,0,0,0,54,54,61,,,,,,,,,,,,,,,,,,,,,275.92943359998753,,,,,,,,,,,,,275.92324809999263,275.92943359998753,275.92943359998753,276.12966989999404,276.5977120999887,1,1,0.6639397000108147,None,276.59851699999126,276.60465470000054,276.60465470000054,276.8098968999984,277.0189165999909,277.01320089999354,277.0132464999915,277.0189165999909,277.7200662999967,277.71377779998875,,,,,,,,,,,,,,,,,,,,,,,,,,,,,,,,,,,,,,,,,,,,,,,,,,,,,,,,,002,motor,5,0,2024-08-01_13h53.06.679,ASRT_motor,2023.2.3,142.03113036845696,
,2,180,3,1,red,sequences/_practice_sequence_00.csv,,,,,,,,,,,0,0,0,0,0,55,55,77,,,,,,,,,,,,,,,,,,,,,277.7200662999967,,,,,,,,,,,,,277.71442150000075,277.7200662999967,277.7200662999967,277.9208825999958,278.25758549998864,1,1,0.5326732999965316,None,278.25842539999576,278.2640342999948,278.2640342999948,278.46994119999,278.6787501999934,278.6729020999919,278.67295609999564,278.6787501999934,279.3791032000008,279.3728342999966,,,,,,,,,,,,,,,,,,,,,,,,,,,,,,,,,,,,,,,,,,,,,,,,,,,,,,,,,002,motor,5,0,2024-08-01_13h53.06.679,ASRT_motor,2023.2.3,142.03113036845696,
,2,180,3,1,red,sequences/_practice_sequence_00.csv,,,,,,,,,,,0,0,0,0,0,56,56,40,,,,,,,,,,,,,,,,,,,,,279.3791032000008,,,,,,,,,,,,,279.3731533999962,279.3791032000008,279.3791032000008,279.58128469999065,279.8618969999952,1,1,0.47519420000026,None,279.8624737999926,279.86921799999254,279.86921799999254,280.0739724999876,280.28240959999675,280.2763586999936,280.27640039999096,280.28240959999675,,280.97668789999443,,,,,,,,,,,,,,,,,,,,,,,,,,,,,,,,,,,,,,,,,,,,,,,,,,,,,,,,,002,motor,5,0,2024-08-01_13h53.06.679,ASRT_motor,2023.2.3,142.03113036845696,
,3,270,0,4,red,sequences/_practice_sequence_00.csv,,,,,,,,,,,0,0,0,0,0,57,57,45,,,,,,,,,,,,,,,,,,,,,280.9837103999889,,,,,,,,,,,,,280.977129699997,280.9837103999889,280.9837103999889,281.18547019999824,281.6027912999998,1,0,0.6131165000115288,None,281.603297499998,281.61001479999686,281.61001479999686,281.81700359999377,282.0258521999931,282.01997850000043,282.0200238999969,282.0258521999931,,282.72104549998767,,,,,,,,,,,,,,,,,,,,,,,,,,,,,,,,,,,,,,,,,,,,,,,,,,,,,,,,,002,motor,5,0,2024-08-01_13h53.06.679,ASRT_motor,2023.2.3,142.03113036845696,
,2,180,3,1,red,sequences/_practice_sequence_00.csv,,,,,,,,,,,0,0,0,0,0,58,58,27,,,,,,,,,,,,,,,,,,,,,282.7286064999935,,,,,,,,,,,,,282.72191529998963,282.7286064999935,282.7286064999935,282.9286970999965,283.48456649998843,1,1,0.754911700001685,None,283.4848281000013,283.49011769999925,283.49011769999925,283.69887149998976,283.9084723999986,283.9020765999885,283.90212579999934,283.9084723999986,284.6081966999918,284.60199869998905,,,,,,,,,,,,,,,,,,,,,,,,,,,,,,,,,,,,,,,,,,,,,,,,,,,,,,,,,002,motor,5,0,2024-08-01_13h53.06.679,ASRT_motor,2023.2.3,142.03113036845696,
,2,180,3,1,red,sequences/_practice_sequence_00.csv,,,,,,,,,,,0,0,0,0,0,59,59,70,,,,,,,,,,,,,,,,,,,,,284.6081966999918,,,,,,,,,,,,,284.6024544999964,284.6081966999918,284.6081966999918,284.81033009999373,285.165539499998,1,1,0.5510281000024406,None,285.1660356999928,285.17076329998963,285.17076329998963,285.3796641999943,285.5926432999986,285.58633109999937,285.58638149999024,285.5926432999986,,286.29041309999593,,,,,,,,,,,,,,,,,,,,,,,,,,,,,,,,,,,,,,,,,,,,,,,,,,,,,,,,,002,motor,5,0,2024-08-01_13h53.06.679,ASRT_motor,2023.2.3,142.03113036845696,
,1,90,2,2,red,sequences/_practice_sequence_00.csv,,,,,,,,,,,0,0,0,0,0,60,60,64,,,,,,,,,,,,,,,,,,,,,286.30048669999815,,,,,,,,,,,,,286.2913259999914,286.30048669999815,286.30048669999815,286.5040949999966,286.9942808999913,2,1,0.6897289000044111,None,286.99539739999454,287.0082250999985,287.0082250999985,287.21352989999286,287.42146449998836,287.41614629999094,287.4161912999989,287.42146449998836,288.12216199999966,288.1155843999877,,,,,,,,,,,,,,,,,,,,,,,,,,,,,,,,,,,,,,,,,,,,,,,,,,,,,,,,,002,motor,5,0,2024-08-01_13h53.06.679,ASRT_motor,2023.2.3,142.03113036845696,
,3,270,0,4,red,sequences/_practice_sequence_00.csv,,,,,,,,,,,0,0,0,0,0,61,61,29,,,,,,,,,,,,,,,,,,,,,288.12216199999966,,,,,,,,,,,,,288.11596139999165,288.12216199999966,288.12216199999966,288.3238970999955,288.54899779999687,4,1,0.41974120000668336,None,288.54965699999593,288.5569428999879,288.5569428999879,288.76197179999144,288.970742599995,288.9639690999902,288.96401499999047,288.970742599995,289.67088499999954,289.66440539999167,,,,,,,,,,,,,,,,,,,,,,,,,,,,,,,,,,,,,,,,,,,,,,,,,,,,,,,,,002,motor,5,0,2024-08-01_13h53.06.679,ASRT_motor,2023.2.3,142.03113036845696,
,2,180,3,1,red,sequences/_practice_sequence_00.csv,,,,,,,,,,,0,0,0,0,0,62,62,72,,,,,,,,,,,,,,,,,,,,,289.67088499999954,,,,,,,,,,,,,289.66483949999383,289.67088499999954,289.67088499999954,289.8725745999982,290.14760149999347,1,1,0.4674877999932505,None,290.1483593999874,290.154409499999,290.154409499999,290.35824849999335,290.56734169999254,290.56270049999875,290.56274609999673,290.56734169999254,291.26846549999027,291.2629214999906,,,,,,,,,,,,,,,,,,,,,,,,,,,,,,,,,,,,,,,,,,,,,,,,,,,,,,,,,002,motor,5,0,2024-08-01_13h53.06.679,ASRT_motor,2023.2.3,142.03113036845696,
,3,270,0,4,red,sequences/_practice_sequence_00.csv,,,,,,,,,,,0,0,0,0,0,63,63,30,,,,,,,,,,,,,,,,,,,,,291.26846549999027,,,,,,,,,,,,,291.2635195999901,291.26846549999027,291.26846549999027,291.4696704999951,292.04027009999845,1,0,0.7644834999955492,None,292.0411183999968,292.0494225000002,292.0494225000002,292.2541491999873,292.46224909999,292.4557977999939,292.45581479999237,292.46224909999,,293.1578226999991,,,,,,,,,,,,,,,,,,,,,,,,,,,,,,,,,,,,,,,,,,,,,,,,,,,,,,,,,002,motor,5,0,2024-08-01_13h53.06.679,ASRT_motor,2023.2.3,142.03113036845696,
,2,180,3,1,red,sequences/_practice_sequence_00.csv,,,,,,,,,,,0,0,0,0,0,64,64,65,,,,,,,,,,,,,,,,,,,,,293.16392899998755,,,,,,,,,,,,,293.1585212999926,293.16392899998755,293.16392899998755,293.3658599999908,293.70799499998975,1,1,0.5418750999961048,None,293.70858130000124,293.7141974999977,293.7141974999977,293.920621799989,294.1293025999912,294.12302899999486,294.1230574999936,294.1293025999912,,294.82397769999807,,,,,,,,,,,,,,,,,,,,,,,,,,,,,,,,,,,,,,,,,,,,,,,,,,,,,,,,,002,motor,5,0,2024-08-01_13h53.06.679,ASRT_motor,2023.2.3,142.03113036845696,
,0,0,1,3,red,sequences/_practice_sequence_00.csv,,,,,,,,,,,0,0,0,0,0,65,65,82,,,,,,,,,,,,,,,,,,,,,294.8312972999993,,,,,,,,,,,,,294.8246807999967,294.8312972999993,294.8312972999993,295.03242939998745,295.4851045999967,3,1,0.6478042000089772,None,295.48584649999975,295.4917562999908,295.4917562999908,295.698905799989,295.9087001000007,295.9025147999928,295.90257369999017,295.9087001000007,296.60839339999075,296.60229049999907,,,,,,,,,,,,,,,,,,,,,,,,,,,,,,,,,,,,,,,,,,,,,,,,,,,,,,,,,002,motor,5,0,2024-08-01_13h53.06.679,ASRT_motor,2023.2.3,142.03113036845696,
,1,90,2,2,red,sequences/_practice_sequence_00.csv,,,,,,,,,,,0,0,0,0,0,66,66,16,,,,,,,,,,,,,,,,,,,,,296.60839339999075,,,,,,,,,,,,,296.6027958999912,296.60839339999075,296.60839339999075,296.8096673999971,297.2861048999912,2,1,0.6744729000056395,None,297.2868565999961,297.2929429999931,297.2929429999931,297.49720759999764,297.7056661999959,297.7008330999961,297.70088429999305,297.7056661999959,298.4073161999986,298.4010841999989,,,,,,,,,,,,,,,,,,,,,,,,,,,,,,,,,,,,,,,,,,,,,,,,,,,,,,,,,002,motor,5,0,2024-08-01_13h53.06.679,ASRT_motor,2023.2.3,142.03113036845696,
,1,90,2,2,red,sequences/_practice_sequence_00.csv,,,,,,,,,,,0,0,0,0,0,67,67,42,,,,,,,,,,,,,,,,,,,,,298.4073161999986,,,,,,,,,,,,,298.4016896999965,298.4073161999986,298.4073161999986,298.60837919999904,299.0466716999945,2,1,0.6350259999890113,None,299.0471147999924,299.0523879999964,299.0523879999964,299.26149809999333,299.4703567999968,299.4651715999935,299.4652286999917,299.4703567999968,300.1703814999928,300.1643436000013,,,,,,,,,,,,,,,,,,,,,,,,,,,,,,,,,,,,,,,,,,,,,,,,,,,,,,,,,002,motor,5,0,2024-08-01_13h53.06.679,ASRT_motor,2023.2.3,142.03113036845696,
,3,270,0,4,red,sequences/_practice_sequence_00.csv,,,,,,,,,,,0,0,0,0,0,68,68,36,,,,,,,,,,,,,,,,,,,,,300.1703814999928,,,,,,,,,,,,,300.1647222999891,300.1703814999928,300.1703814999928,300.3724472999893,300.7862766999897,4,1,0.6124246000108542,None,300.78725869998743,300.79450129999896,300.79450129999896,300.99765219999244,301.205793000001,301.19997019998846,301.2000221999915,301.205793000001,,301.9010397999955,,,,,,,,,,,,,,,,,,,,,,,,,,,,,,,,,,,,,,,,,,,,,,,,,,,,,,,,,002,motor,5,0,2024-08-01_13h53.06.679,ASRT_motor,2023.2.3,142.03113036845696,
,2,180,3,1,red,sequences/_practice_sequence_00.csv,,,,,,,,,,,0,0,0,0,0,69,69,75,,,,,,,,,,,,,,,,,,,,,301.9085522999958,,,,,,,,,,,,,301.9020113000006,301.9085522999958,301.9085522999958,302.1085548999981,302.4904721999919,1,1,0.5781565000070259,None,302.4908362999995,302.4966902999877,302.4966902999877,302.70607869999367,302.91374389998964,302.9076449999993,302.90767799998866,302.91374389998964,,303.6078923999885,,,,,,,,,,,,,,,,,,,,,,,,,,,,,,,,,,,,,,,,,,,,,,,,,,,,,,,,,002,motor,5,0,2024-08-01_13h53.06.679,ASRT_motor,2023.2.3,142.03113036845696,
,2,180,3,1,red,sequences/_practice_sequence_00.csv,,,,,,,,,,,0,0,0,0,0,70,70,7,,,,,,,,,,,,,,,,,,,,,303.6148178000003,,,,,,,,,,,,,303.60830349999014,303.6148178000003,303.6148178000003,303.8173018999951,304.1744405999925,1,1,0.5565298000001349,None,304.1750908999966,304.18136159999995,304.18136159999995,304.3859042999975,304.5939198999986,304.58780979999574,304.58783469999616,304.5939198999986,,305.28995209999266,,,,,,,,,,,,,,,,,,,,,,,,,,,,,,,,,,,,,,,,,,,,,,,,,,,,,,,,,002,motor,5,0,2024-08-01_13h53.06.679,ASRT_motor,2023.2.3,142.03113036845696,
,2,180,3,1,red,sequences/_practice_sequence_00.csv,,,,,,,,,,,0,0,0,0,0,71,71,33,,,,,,,,,,,,,,,,,,,,,305.29980909998994,,,,,,,,,,,,,305.2910716999904,305.29980909998994,305.29980909998994,305.5042187999934,306.123571899996,1,1,0.8173381999949925,None,306.1241764000006,306.13027209999564,306.13027209999564,306.3377286999894,306.54583369998727,306.540751499997,306.54078889999073,306.54583369998727,307.2469035999966,307.2413183999888,,,,,,,,,,,,,,,,,,,,,,,,,,,,,,,,,,,,,,,,,,,,,,,,,,,,,,,,,002,motor,5,0,2024-08-01_13h53.06.679,ASRT_motor,2023.2.3,142.03113036845696,
,0,0,1,3,red,sequences/_practice_sequence_00.csv,,,,,,,,,,,0,0,0,0,0,72,72,14,,,,,,,,,,,,,,,,,,,,,307.2469035999966,,,,,,,,,,,,,307.2418670999905,307.2469035999966,307.2469035999966,307.4482820999983,307.8466894000012,3,1,0.5952775000041584,None,307.8473190999939,307.85324969999783,307.85324969999783,308.0594936999987,308.26887989998795,308.26296189999266,308.2630063999968,308.26887989998795,308.969030399996,308.9621615999931,,,,,,,,,,,,,,,,,,,,,,,,,,,,,,,,,,,,,,,,,,,,,,,,,,,,,,,,,002,motor,5,0,2024-08-01_13h53.06.679,ASRT_motor,2023.2.3,142.03113036845696,
,0,0,1,3,red,sequences/_practice_sequence_00.csv,,,,,,,,,,,0,0,0,0,0,73,73,51,,,,,,,,,,,,,,,,,,,,,308.969030399996,,,,,,,,,,,,,308.96248019998893,308.969030399996,308.969030399996,309.17030169999634,309.5198817999917,3,1,0.5463304000004428,None,309.5206072000001,309.52662939998845,309.52662939998845,309.7336804999941,309.94144749999396,309.9357578999916,309.93579540000064,309.94144749999396,310.64288549999765,310.63596400000097,,,,,,,,,,,,,,,,,,,,,,,,,,,,,,,,,,,,,,,,,,,,,,,,,,,,,,,,,002,motor,5,0,2024-08-01_13h53.06.679,ASRT_motor,2023.2.3,142.03113036845696,
,1,90,2,2,red,sequences/_practice_sequence_00.csv,,,,,,,,,,,0,0,0,0,0,74,74,43,,,,,,,,,,,,,,,,,,,,,310.64288549999765,,,,,,,,,,,,,310.63634489999095,310.64288549999765,310.64288549999765,310.8443568999937,311.4423392999888,2,1,0.7928594000113662,None,311.44276069999614,311.4478409000003,311.4478409000003,311.6569518999895,311.865000699996,311.8586510999885,311.85868499999924,311.865000699996,,312.558992899998,,,,,,,,,,,,,,,,,,,,,,,,,,,,,,,,,,,,,,,,,,,,,,,,,,,,,,,,,002,motor,5,0,2024-08-01_13h53.06.679,ASRT_motor,2023.2.3,142.03113036845696,
,3,270,0,4,red,sequences/_practice_sequence_00.csv,,,,,,,,,,,0,0,0,0,0,75,75,10,,,,,,,,,,,,,,,,,,,,,312.56588669998746,,,,,,,,,,,,,312.5592418999877,312.56588669998746,312.56588669998746,312.7683171999961,313.2143824999948,4,1,0.6426388000109,None,313.2149017999909,313.2193264999951,313.2193264999951,313.4271541999915,313.63577789999545,313.62906379999185,313.62907909999194,313.63577789999545,,314.33093869998993,,,,,,,,,,,,,,,,,,,,,,,,,,,,,,,,,,,,,,,,,,,,,,,,,,,,,,,,,002,motor,5,0,2024-08-01_13h53.06.679,ASRT_motor,2023.2.3,142.03113036845696,
,3,270,0,4,red,sequences/_practice_sequence_00.csv,,,,,,,,,,,0,0,0,0,0,76,76,73,,,,,,,,,,,,,,,,,,,,,314.33928770000057,,,,,,,,,,,,,314.3319460999919,314.33928770000057,314.33928770000057,314.538985399995,314.8583987999882,4,1,0.5147197999904165,None,314.8587974999973,314.86435089999577,314.86435089999577,315.0772105999931,315.28164619999006,315.27611759999127,315.2761656999937,315.28164619999006,,315.9763180000009,,,,,,,,,,,,,,,,,,,,,,,,,,,,,,,,,,,,,,,,,,,,,,,,,,,,,,,,,002,motor,5,0,2024-08-01_13h53.06.679,ASRT_motor,2023.2.3,142.03113036845696,
,0,0,1,3,red,sequences/_practice_sequence_00.csv,,,,,,,,,,,0,0,0,0,0,77,77,26,,,,,,,,,,,,,,,,,,,,,315.9834761999955,,,,,,,,,,,,,315.9771764999896,315.9834761999955,315.9834761999955,316.1840579999989,316.6688758999953,3,1,0.6748769999976503,None,316.6705052999896,316.6786749999883,316.6786749999883,316.8790663999971,317.0870808999898,317.08174229999713,317.08178809999663,317.0870808999898,317.7880288999877,317.78170249999675,,,,,,,,,,,,,,,,,,,,,,,,,,,,,,,,,,,,,,,,,,,,,,,,,,,,,,,,,002,motor,5,0,2024-08-01_13h53.06.679,ASRT_motor,2023.2.3,142.03113036845696,
,3,270,0,4,red,sequences/_practice_sequence_00.csv,,,,,,,,,,,0,0,0,0,0,78,78,13,,,,,,,,,,,,,,,,,,,,,317.7880288999877,,,,,,,,,,,,,317.782069199995,317.7880288999877,317.7880288999877,317.99036359999445,318.42538439999043,1,0,0.6340406999952393,None,318.426318599988,318.4374094999948,318.4374094999948,318.63567909999983,318.84413230000064,318.83832289998827,318.8383749999921,318.84413230000064,,319.539377699999,,,,,,,,,,,,,,,,,,,,,,,,,,,,,,,,,,,,,,,,,,,,,,,,,,,,,,,,,002,motor,5,0,2024-08-01_13h53.06.679,ASRT_motor,2023.2.3,142.03113036845696,
,1,90,2,2,red,sequences/_practice_sequence_00.csv,,,,,,,,,,,0,0,0,0,0,79,79,44,,,,,,,,,,,,,,,,,,,,,319.54664459999185,,,,,,,,,,,,,319.5401603999926,319.54664459999185,319.54664459999185,319.7475801999972,320.32544499999494,3,0,0.7710060000099475,None,320.32624419999775,320.33405720000155,320.33405720000155,320.53826370000024,320.74643020000076,320.7396951999981,320.73971449999954,320.74643020000076,,321.44139859999996,,,,,,,,,,,,,,,,,,,,,,,,,,,,,,,,,,,,,,,,,,,,,,,,,,,,,,,,,002,motor,5,0,2024-08-01_13h53.06.679,ASRT_motor,2023.2.3,142.03113036845696,
,0,0,1,3,red,sequences/_practice_sequence_00.csv,,,,,,,,,,,0,0,0,0,0,80,80,0,,,,,,,,,,,,,,,,,,,,,321.44802269998763,,,,,,,,,,,,,321.44202619999123,321.44802269998763,321.44802269998763,321.65046409999195,321.8866341999965,3,1,0.43530539999483153,None,321.8871272999968,321.89418009998917,321.89418009998917,322.10098389998893,322.3092428999953,322.3037541999947,322.30379299999913,322.3092428999953,,323.00395309999294,,,,,,,,,,,,,,,,,,,,,,,,,,,,,,,,,,,,,,,,,,,,,,,,,,,,,,,,,002,motor,5,0,2024-08-01_13h53.06.679,ASRT_motor,2023.2.3,142.03113036845696,
,2,180,3,1,red,sequences/_practice_sequence_00.csv,,,,,,,,,,,0,0,0,0,0,81,81,60,,,,,,,,,,,,,,,,,,,,,323.01116119998915,,,,,,,,,,,,,323.0046702999971,323.01116119998915,323.01116119998915,323.21224559999246,323.5185214999947,1,1,0.5035215999960201,None,323.51897639999515,323.5242134,323.5242134,323.733127399988,323.9411543999886,323.9357897000009,323.9358423999947,323.9411543999886,,324.6360697999917,,,,,,,,,,,,,,,,,,,,,,,,,,,,,,,,,,,,,,,,,,,,,,,,,,,,,,,,,002,motor,5,0,2024-08-01_13h53.06.679,ASRT_motor,2023.2.3,142.03113036845696,
,0,0,1,3,red,sequences/_practice_sequence_00.csv,,,,,,,,,,,0,0,0,0,0,82,82,20,,,,,,,,,,,,,,,,,,,,,324.64309309999226,,,,,,,,,,,,,324.6370620999951,324.64309309999226,324.64309309999226,324.84433849999914,325.6365165999887,None,0,,,325.63720149999426,325.64895909999905,325.64895909999905,325.85086659999797,326.05938229999447,326.053731299995,326.05377600000065,326.05938229999447,326.76188789999287,326.75439799999003,,,,,,,,,,,,,,,,,,,,,,,,,,,,,,,,,,,,,,,,,,,,,,,,,,,,,,,,,002,motor,5,0,2024-08-01_13h53.06.679,ASRT_motor,2023.2.3,142.03113036845696,
,0,0,1,3,red,sequences/_practice_sequence_00.csv,,,,,,,,,,,0,0,0,0,0,83,83,57,,,,,,,,,,,,,,,,,,,,,326.76188789999287,,,,,,,,,,,,,326.7550307999918,326.76188789999287,326.76188789999287,326.9615865999949,327.29066479999165,3,1,0.5219327999948291,None,327.2914340999996,327.2977713,327.2977713,327.503819199992,327.7118416999874,327.70590169999923,327.70593869998993,327.7118416999874,,328.4065428999893,,,,,,,,,,,,,,,,,,,,,,,,,,,,,,,,,,,,,,,,,,,,,,,,,,,,,,,,,002,motor,5,0,2024-08-01_13h53.06.679,ASRT_motor,2023.2.3,142.03113036845696,
,0,0,1,3,red,sequences/_practice_sequence_00.csv,,,,,,,,,,,0,0,0,0,0,84,84,17,,,,,,,,,,,,,,,,,,,,,328.41307169999345,,,,,,,,,,,,,328.40708659999655,328.41307169999345,328.41307169999345,328.61474589999125,328.79699560000154,3,1,0.3786835000064457,None,328.79792359999556,328.8042911999946,328.8042911999946,329.0107927999925,329.2183188999916,329.2117448999925,329.2117598999903,329.2183188999916,,329.9136424999888,,,,,,,,,,,,,,,,,,,,,,,,,,,,,,,,,,,,,,,,,,,,,,,,,,,,,,,,,002,motor,5,0,2024-08-01_13h53.06.679,ASRT_motor,2023.2.3,142.03113036845696,
,,,,,,sequences/_practice_sequence_00.csv,,,,,,,,,,,0,0,0,0,,,,,,,,,,,,,,,,,,,,,,,,,,,,,,,,,,,,,,,,,,,,,,,,,,,,,,,,,329.91387720000057,329.9305300999986,329.9305300999986,,333.03248259999964,space,3.0943625000072643,None,,,,,,,,,,,,,,,,,,,,,,,,,,,,,,,,,,,,,,,,,,,,,,,,,002,motor,5,0,2024-08-01_13h53.06.679,ASRT_motor,2023.2.3,142.03113036845696,
,3,270,0,4,red,sequences/_practice_sequence_01.csv,,,,,,,,,,,0,1,1,1,0,0,0,12,,,,,,,,,,,,,,,,,,,,,334.0548745999986,,,,,,,,,,333.03339849998883,333.03805329999886,334.0324200999894,334.0513525999995,334.0548745999986,334.0548745999986,334.2535479999933,334.691948599997,1,0,0.6335840999963693,None,334.69283509999514,334.6988077999995,334.6988077999995,334.90604000000167,335.1140752999927,335.10790269999416,335.10793049998756,335.1140752999927,,335.8091718999931,,,,,,,,,,,,,,,,,,334.0548745999986,,,,,,,,,,,,,,,,,,,,,,,,,,,,,,,,,,,,,,,002,motor,5,0,2024-08-01_13h53.06.679,ASRT_motor,2023.2.3,142.03113036845696,
,1,90,2,2,red,sequences/_practice_sequence_01.csv,,,,,,,,,,,0,1,1,1,0,1,1,2,,,,,,,,,,,,,,,,,,,,,335.8157435999892,,,,,,,,,,,,,335.8097510999942,335.8157435999892,335.8157435999892,336.017588799994,336.6364235999936,2,1,0.8139400000072783,None,336.6372052999941,336.64406769999187,336.64406769999187,336.8500987000007,337.05873069999507,337.05370419999235,337.0537559999939,337.05873069999507,337.7616313999897,337.7546590999991,,,,,,,,,,,,,,,,,,,,,,,,,,,,,,,,,,,,,,,,,,,,,,,,,,,,,,,,,002,motor,5,0,2024-08-01_13h53.06.679,ASRT_motor,2023.2.3,142.03113036845696,
,3,270,0,4,red,sequences/_practice_sequence_01.csv,,,,,,,,,,,0,1,1,1,0,2,2,51,,,,,,,,,,,,,,,,,,,,,337.7616313999897,,,,,,,,,,,,,337.7553639999969,337.7616313999897,337.7616313999897,337.9617911999958,338.3656791999965,4,1,0.5971128000091994,None,338.36617919999117,338.37104819998785,338.37104819998785,338.5800281999982,338.7879336999904,338.7819993999874,338.7820369999972,338.7879336999904,,339.4823217999947,,,,,,,,,,,,,,,,,,,,,,,,,,,,,,,,,,,,,,,,,,,,,,,,,,,,,,,,,002,motor,5,0,2024-08-01_13h53.06.679,ASRT_motor,2023.2.3,142.03113036845696,
