initial_random_seq_files,orientation_index,orientation_degrees,correct_answer_index,correct_answer_direction,arrow_color,practice_seq_files,learning_seq_files,motor_testing_seq_files,init_random_block.thisRepN,init_random_block.thisTrialN,init_random_block.thisN,init_random_block.thisIndex,init_random_trials.thisRepN,init_random_trials.thisTrialN,init_random_trials.thisN,init_random_trials.thisIndex,practice_blocks.thisRepN,practice_blocks.thisTrialN,practice_blocks.thisN,practice_blocks.thisIndex,practice_trials.thisRepN,practice_trials.thisTrialN,practice_trials.thisN,practice_trials.thisIndex,learning_trials.thisRepN,learning_trials.thisTrialN,learning_trials.thisN,learning_trials.thisIndex,learning_loop.thisRepN,learning_loop.thisTrialN,learning_loop.thisN,learning_loop.thisIndex,trials.thisRepN,trials.thisTrialN,trials.thisN,trials.thisIndex,motor_testing_trials.thisRepN,motor_testing_trials.thisTrialN,motor_testing_trials.thisN,motor_testing_trials.thisIndex,motor_testing_loop.thisRepN,motor_testing_loop.thisTrialN,motor_testing_loop.thisN,motor_testing_loop.thisIndex,thisRow.t,notes,welcomescreen.started,spaceship.started,welcometext.started,welcome_end.started,welcomescreen.stopped,welcome_end.keys,welcome_end.rt,welcome_end.duration,pre_section.started,fixation_init.started,pre_section.stopped,trial.started,arrowhead.started,key_resp.started,arrowhead.stopped,trial.stopped,key_resp.keys,key_resp.corr,key_resp.rt,key_resp.duration,fixation_feedback.started,cross.started,feedback_text.started,cross.stopped,feedback_text.stopped,fixation_feedback.stopped,RSI.started,text_2.started,RSI.stopped,text_2.stopped,post_section.started,feedback_post_section.started,key_resp_4.started,post_section.stopped,key_resp_4.keys,key_resp_4.rt,key_resp_4.duration,pratice_instruction.started,spaceship_rotated.started,rotation_instruction.started,key_resp_2.started,pratice_instruction.stopped,key_resp_2.keys,key_resp_2.rt,key_resp_2.duration,fixation_init.stopped,learning_instruction.started,spaceship_rotated01.started,rotation_instruction01.started,key_resp_02.started,learning_instruction.stopped,key_resp_02.keys,key_resp_02.rt,key_resp_02.duration,seqreport_instruction.started,seqreport_instruction_text.started,seqreport_instruction_key.started,seqreport_instruction.stopped,seqreport_instruction_key.keys,seqreport_instruction_key.rt,seqreport_instruction_key.duration,seqreport.started,seq_report_key.started,seqreport.stopped,seq_report_key.keys,seq_report_key.rt,seq_report_key.duration,seqarrow.started,arrow_report.started,seqarrow.stopped,arrow_report.stopped,key_resp.stopped,motor_testing_instruction.started,spaceship3.started,motor_testing_instruction_text.started,key_resp_3.started,motor_testing_instruction.stopped,key_resp_3.keys,key_resp_3.rt,key_resp_3.duration,fixation.started,cross_2.started,cross_2.stopped,fixation.stopped,participant,learning_type,seqID,debug,date,expName,psychopyVersion,frameRate,expStart,
,,,,,,,,,,,,,,,,,,,,,,,,,,,,,,,,,,,,,,,,,,,,,,,0.010748700000021927,0.017627199999992627,0.017627199999992627,0.017627199999992627,8.192442400000004,space,8.168943300000024,None,,,,,,,,,,,,,,,,,,,,,,,,,,,,,,,,,,,,,,,,,,,,,,,,,,,,,,,,,,,,,,,,,,,,,,,,,,,,,sub104,motor,2,0,2024-08-07_17h33.35.810,ASRT_motor,2023.2.3,143.13974160411303,2024-08-07 17h34.21.306806 +0800,
sequences/sub104_initial_random.csv,0,0,0,4,red,,,,0,0,0,0,0,0,0,0,,,,,,,,,,,,,,,,,,,,,,,,,,,,,9.228722500000003,,,,,,,,,,8.214288900000042,8.216811600000028,9.199480300000005,9.225264700000025,9.228722500000003,9.228722500000003,9.43371669999999,9.70141799999999,4,1,0.466653699999938,None,9.702569700000026,9.710679200000072,9.710679200000072,9.912869300000011,10.121070499999973,10.115559800000028,10.115610199999992,10.121070499999973,10.81805630000008,,,,,,,,,,,,,,,,,,,,,,,,,,,,,,,,,,,,,,,,,,,,,,,,,,,,,,,,sub104,motor,2,0,2024-08-07_17h33.35.810,ASRT_motor,2023.2.3,143.13974160411303,2024-08-07 17h34.21.306806 +0800,
sequences/sub104_initial_random.csv,2,180,2,2,red,,,,0,0,0,0,0,1,1,1,,,,,,,,,,,,,,,,,,,,,,,,,,,,,10.825779099999977,,,,,,,,,,,,,10.819072399999982,10.825779099999977,10.825779099999977,11.027780800000073,11.228589499999998,2,1,0.39979009999990467,None,11.229071700000077,11.236563100000012,11.236563100000012,11.440462900000057,11.64877100000001,11.643203000000085,11.643253500000014,11.64877100000001,12.34368690000008,,,,,,,,,,,,,,,,,,,,,,,,,,,,,,,,,,,,,,,,,,,,,,,,,,,,,,,,sub104,motor,2,0,2024-08-07_17h33.35.810,ASRT_motor,2023.2.3,143.13974160411303,2024-08-07 17h34.21.306806 +0800,
sequences/sub104_initial_random.csv,0,0,0,4,red,,,,0,0,0,0,0,2,2,2,,,,,,,,,,,,,,,,,,,,,,,,,,,,,12.350966299999982,,,,,,,,,,,,,12.344196600000032,12.350966299999982,12.350966299999982,12.55179320000002,12.763148900000033,4,1,0.4096435000000156,None,12.763812799999982,12.769047200000045,12.769047200000045,12.975563400000055,13.18361040000002,13.177311499999973,13.17734130000008,13.18361040000002,13.878373699999997,,,,,,,,,,,,,,,,,,,,,,,,,,,,,,,,,,,,,,,,,,,,,,,,,,,,,,,,sub104,motor,2,0,2024-08-07_17h33.35.810,ASRT_motor,2023.2.3,143.13974160411303,2024-08-07 17h34.21.306806 +0800,
sequences/sub104_initial_random.csv,0,0,0,4,red,,,,0,0,0,0,0,3,3,3,,,,,,,,,,,,,,,,,,,,,,,,,,,,,13.886637800000017,,,,,,,,,,,,,13.879080000000044,13.886637800000017,13.886637800000017,14.086600700000076,14.241473700000029,2,0,0.35184130000004643,None,14.242045599999983,14.252909300000056,14.252909300000056,14.454325100000005,14.662730099999976,14.656814600000075,14.656852500000014,14.662730099999976,15.35749270000008,,,,,,,,,,,,,,,,,,,,,,,,,,,,,,,,,,,,,,,,,,,,,,,,,,,,,,,,sub104,motor,2,0,2024-08-07_17h33.35.810,ASRT_motor,2023.2.3,143.13974160411303,2024-08-07 17h34.21.306806 +0800,
sequences/sub104_initial_random.csv,2,180,2,2,red,,,,0,0,0,0,0,4,4,4,,,,,,,,,,,,,,,,,,,,,,,,,,,,,15.363850200000002,,,,,,,,,,,,,15.358156300000019,15.363850200000002,15.363850200000002,15.56602040000007,15.762392700000078,2,1,0.3913561000000527,None,15.762936000000082,15.767868900000053,15.767868900000053,15.975394700000038,16.1840684,16.177608299999974,16.17769390000001,16.1840684,16.877958600000056,,,,,,,,,,,,,,,,,,,,,,,,,,,,,,,,,,,,,,,,,,,,,,,,,,,,,,,,sub104,motor,2,0,2024-08-07_17h33.35.810,ASRT_motor,2023.2.3,143.13974160411303,2024-08-07 17h34.21.306806 +0800,
sequences/sub104_initial_random.csv,0,0,0,4,red,,,,0,0,0,0,0,5,5,5,,,,,,,,,,,,,,,,,,,,,,,,,,,,,16.884837500000003,,,,,,,,,,,,,16.878536600000075,16.884837500000003,16.884837500000003,17.086695599999985,17.199389699999983,4,1,0.31002520000004097,None,17.20000260000006,17.206458999999995,17.206458999999995,17.412647600000014,17.62121860000002,17.614955099999975,17.614991799999984,17.62121860000002,18.315623500000015,,,,,,,,,,,,,,,,,,,,,,,,,,,,,,,,,,,,,,,,,,,,,,,,,,,,,,,,sub104,motor,2,0,2024-08-07_17h33.35.810,ASRT_motor,2023.2.3,143.13974160411303,2024-08-07 17h34.21.306806 +0800,
sequences/sub104_initial_random.csv,0,0,0,4,red,,,,0,0,0,0,0,6,6,6,,,,,,,,,,,,,,,,,,,,,,,,,,,,,18.32208639999999,,,,,,,,,,,,,18.316266200000086,18.32208639999999,18.32208639999999,18.52389590000007,18.69282850000002,4,1,0.36317700000006425,None,18.6934215,18.699048199999993,18.699048199999993,18.9058086,19.115853600000037,19.109533199999987,19.10958430000005,19.115853600000037,19.809992100000045,19.817463299999986,,,,,,,,,,,,,,,,,,,,,,,,,,,,,,,,,,,,,,,,,,,,,,,,,,,,,,,sub104,motor,2,0,2024-08-07_17h33.35.810,ASRT_motor,2023.2.3,143.13974160411303,2024-08-07 17h34.21.306806 +0800,
sequences/sub104_initial_random.csv,0,0,0,4,red,,,,0,0,0,0,0,7,7,7,,,,,,,,,,,,,,,,,,,,,,,,,,,,,19.817463299999986,,,,,,,,,,,,,19.810835300000008,19.817463299999986,19.817463299999986,20.02352410000003,20.122670500000027,4,1,0.3008432999999968,None,20.123283000000015,20.132265300000086,20.132265300000086,20.34083570000007,20.544772599999988,20.538675800000078,20.538714400000003,20.544772599999988,21.239142600000037,,,,,,,,,,,,,,,,,,,,,,,,,,,,,,,,,,,,,,,,,,,,,,,,,,,,,,,,sub104,motor,2,0,2024-08-07_17h33.35.810,ASRT_motor,2023.2.3,143.13974160411303,2024-08-07 17h34.21.306806 +0800,
sequences/sub104_initial_random.csv,0,0,0,4,red,,,,0,0,0,0,0,8,8,8,,,,,,,,,,,,,,,,,,,,,,,,,,,,,21.24599569999998,,,,,,,,,,,,,21.23965099999998,21.24599569999998,21.24599569999998,21.44699490000005,21.588381099999992,4,1,0.33747140000002673,None,21.589021200000047,21.594172100000037,21.594172100000037,21.80134290000001,22.009717600000045,22.00426379999999,22.004303800000002,22.009717600000045,22.704981700000076,22.710939900000085,,,,,,,,,,,,,,,,,,,,,,,,,,,,,,,,,,,,,,,,,,,,,,,,,,,,,,,sub104,motor,2,0,2024-08-07_17h33.35.810,ASRT_motor,2023.2.3,143.13974160411303,2024-08-07 17h34.21.306806 +0800,
sequences/sub104_initial_random.csv,2,180,2,2,red,,,,0,0,0,0,0,9,9,9,,,,,,,,,,,,,,,,,,,,,,,,,,,,,22.710939900000085,,,,,,,,,,,,,22.70559179999998,22.710939900000085,22.710939900000085,22.912524599999983,23.04675510000004,2,1,0.3325761999999486,None,23.047354799999994,23.053096700000083,23.053096700000083,23.259908400000086,23.46796119999999,23.46250859999998,23.46253439999998,23.46796119999999,24.163777200000027,24.17049320000001,,,,,,,,,,,,,,,,,,,,,,,,,,,,,,,,,,,,,,,,,,,,,,,,,,,,,,,sub104,motor,2,0,2024-08-07_17h33.35.810,ASRT_motor,2023.2.3,143.13974160411303,2024-08-07 17h34.21.306806 +0800,
sequences/sub104_initial_random.csv,1,90,1,3,red,,,,0,0,0,0,0,10,10,10,,,,,,,,,,,,,,,,,,,,,,,,,,,,,24.17049320000001,,,,,,,,,,,,,24.164342000000033,24.17049320000001,24.17049320000001,24.370884199999978,24.52659840000001,4,0,0.35348629999998593,None,24.527323799999976,24.534745499999985,24.534745499999985,24.738699800000063,24.947054999999978,24.94052880000004,24.94055160000005,24.947054999999978,25.641920700000014,,,,,,,,,,,,,,,,,,,,,,,,,,,,,,,,,,,,,,,,,,,,,,,,,,,,,,,,sub104,motor,2,0,2024-08-07_17h33.35.810,ASRT_motor,2023.2.3,143.13974160411303,2024-08-07 17h34.21.306806 +0800,
sequences/sub104_initial_random.csv,2,180,2,2,red,,,,0,0,0,0,0,11,11,11,,,,,,,,,,,,,,,,,,,,,,,,,,,,,25.649012500000026,,,,,,,,,,,,,25.64250000000004,25.649012500000026,25.649012500000026,25.850042400000007,26.110736599999996,2,1,0.4586041000000023,None,26.111432100000002,26.11826640000004,26.11826640000004,26.32206050000002,26.531005100000016,26.52507209999999,26.525122900000042,26.531005100000016,27.225446499999975,,,,,,,,,,,,,,,,,,,,,,,,,,,,,,,,,,,,,,,,,,,,,,,,,,,,,,,,sub104,motor,2,0,2024-08-07_17h33.35.810,ASRT_motor,2023.2.3,143.13974160411303,2024-08-07 17h34.21.306806 +0800,
sequences/sub104_initial_random.csv,0,0,0,4,red,,,,0,0,0,0,0,12,12,12,,,,,,,,,,,,,,,,,,,,,,,,,,,,,27.231921400000033,,,,,,,,,,,,,27.226029400000016,27.231921400000033,27.231921400000033,27.43360800000005,27.594493400000033,1,0,0.35557860000005803,None,27.595458000000008,27.60333580000008,27.60333580000008,27.80788240000004,28.01647980000007,28.010502599999995,28.01053969999998,28.01647980000007,28.71165259999998,,,,,,,,,,,,,,,,,,,,,,,,,,,,,,,,,,,,,,,,,,,,,,,,,,,,,,,,sub104,motor,2,0,2024-08-07_17h33.35.810,ASRT_motor,2023.2.3,143.13974160411303,2024-08-07 17h34.21.306806 +0800,
sequences/sub104_initial_random.csv,3,270,3,1,red,,,,0,0,0,0,0,13,13,13,,,,,,,,,,,,,,,,,,,,,,,,,,,,,28.71843100000001,,,,,,,,,,,,,28.71240260000002,28.71843100000001,28.71843100000001,28.919417300000077,29.2342079,1,1,0.5126450000000204,None,29.2347532,29.241047900000012,29.241047900000012,29.44715860000008,29.655545800000027,29.64928120000002,29.64931880000006,29.655545800000027,30.350451600000042,,,,,,,,,,,,,,,,,,,,,,,,,,,,,,,,,,,,,,,,,,,,,,,,,,,,,,,,sub104,motor,2,0,2024-08-07_17h33.35.810,ASRT_motor,2023.2.3,143.13974160411303,2024-08-07 17h34.21.306806 +0800,
sequences/sub104_initial_random.csv,2,180,2,2,red,,,,0,0,0,0,0,14,14,14,,,,,,,,,,,,,,,,,,,,,,,,,,,,,30.358152399999994,,,,,,,,,,,,,30.351087500000062,30.358152399999994,30.358152399999994,30.558464800000024,30.886497400000053,2,1,0.5241975999999795,None,30.887110800000073,30.89336590000005,30.89336590000005,31.100041499999975,31.307938400000012,31.30182769999999,31.30185849999998,31.307938400000012,32.002830700000004,,,,,,,,,,,,,,,,,,,,,,,,,,,,,,,,,,,,,,,,,,,,,,,,,,,,,,,,sub104,motor,2,0,2024-08-07_17h33.35.810,ASRT_motor,2023.2.3,143.13974160411303,2024-08-07 17h34.21.306806 +0800,
sequences/sub104_initial_random.csv,2,180,2,2,red,,,,0,0,0,0,0,15,15,15,,,,,,,,,,,,,,,,,,,,,,,,,,,,,32.009789700000056,,,,,,,,,,,,,32.00340630000005,32.009789700000056,32.009789700000056,32.21115110000005,32.449000400000045,2,1,0.4319535999999289,None,32.449597200000085,32.45492530000001,32.45492530000001,32.66235260000008,32.8706995,32.86478260000001,32.864825100000076,32.8706995,33.565229300000055,,,,,,,,,,,,,,,,,,,,,,,,,,,,,,,,,,,,,,,,,,,,,,,,,,,,,,,,sub104,motor,2,0,2024-08-07_17h33.35.810,ASRT_motor,2023.2.3,143.13974160411303,2024-08-07 17h34.21.306806 +0800,
sequences/sub104_initial_random.csv,0,0,0,4,red,,,,0,0,0,0,0,16,16,16,,,,,,,,,,,,,,,,,,,,,,,,,,,,,33.57214340000007,,,,,,,,,,,,,33.56596860000002,33.57214340000007,33.57214340000007,33.7736797,33.916632100000015,4,1,0.34058920000006765,None,33.91725280000003,33.92311330000007,33.92311330000007,34.12752940000007,34.335862099999986,34.3299184,34.329956400000015,34.335862099999986,35.030680300000085,,,,,,,,,,,,,,,,,,,,,,,,,,,,,,,,,,,,,,,,,,,,,,,,,,,,,,,,sub104,motor,2,0,2024-08-07_17h33.35.810,ASRT_motor,2023.2.3,143.13974160411303,2024-08-07 17h34.21.306806 +0800,
sequences/sub104_initial_random.csv,1,90,1,3,red,,,,0,0,0,0,0,17,17,17,,,,,,,,,,,,,,,,,,,,,,,,,,,,,35.03713490000007,,,,,,,,,,,,,35.03121490000001,35.03713490000007,35.03713490000007,35.2387956,35.388546800000086,3,1,0.3485657999999603,None,35.38924810000003,35.395929799999976,35.395929799999976,35.599844000000076,35.80788670000004,35.80205569999998,35.80208779999998,35.80788670000004,36.50313510000001,,,,,,,,,,,,,,,,,,,,,,,,,,,,,,,,,,,,,,,,,,,,,,,,,,,,,,,,sub104,motor,2,0,2024-08-07_17h33.35.810,ASRT_motor,2023.2.3,143.13974160411303,2024-08-07 17h34.21.306806 +0800,
sequences/sub104_initial_random.csv,2,180,2,2,red,,,,0,0,0,0,0,18,18,18,,,,,,,,,,,,,,,,,,,,,,,,,,,,,36.50934270000005,,,,,,,,,,,,,36.50376510000001,36.50934270000005,36.50934270000005,36.71118260000003,36.96907520000002,2,1,0.45266609999998764,None,36.96975370000007,36.97461570000007,36.97461570000007,37.18311319999998,37.39104750000001,37.38606679999998,37.3861081,37.39104750000001,38.08650110000008,,,,,,,,,,,,,,,,,,,,,,,,,,,,,,,,,,,,,,,,,,,,,,,,,,,,,,,,sub104,motor,2,0,2024-08-07_17h33.35.810,ASRT_motor,2023.2.3,143.13974160411303,2024-08-07 17h34.21.306806 +0800,
sequences/sub104_initial_random.csv,2,180,2,2,red,,,,0,0,0,0,0,19,19,19,,,,,,,,,,,,,,,,,,,,,,,,,,,,,38.09323610000001,,,,,,,,,,,,,38.08699510000008,38.09323610000001,38.09323610000001,38.29429090000008,38.484165000000075,2,1,0.38471179999999094,None,38.48493430000008,38.491341900000066,38.491341900000066,38.69659320000005,38.90540429999999,38.899569799999995,38.899641299999985,38.90540429999999,39.599896700000045,,,,,,,,,,,,,,,,,,,,,,,,,,,,,,,,,,,,,,,,,,,,,,,,,,,,,,,,sub104,motor,2,0,2024-08-07_17h33.35.810,ASRT_motor,2023.2.3,143.13974160411303,2024-08-07 17h34.21.306806 +0800,
sequences/sub104_initial_random.csv,0,0,0,4,red,,,,0,0,0,0,0,20,20,20,,,,,,,,,,,,,,,,,,,,,,,,,,,,,39.606995700000084,,,,,,,,,,,,,39.60047300000008,39.606995700000084,39.606995700000084,39.80810960000008,40.05359910000004,4,1,0.4442347000000382,None,40.05426590000002,40.06142680000005,40.06142680000005,40.265911800000026,40.47498010000004,40.46987850000005,40.46992780000005,40.47498010000004,41.170192600000064,41.17627900000002,,,,,,,,,,,,,,,,,,,,,,,,,,,,,,,,,,,,,,,,,,,,,,,,,,,,,,,sub104,motor,2,0,2024-08-07_17h33.35.810,ASRT_motor,2023.2.3,143.13974160411303,2024-08-07 17h34.21.306806 +0800,
sequences/sub104_initial_random.csv,2,180,2,2,red,,,,0,0,0,0,0,21,21,21,,,,,,,,,,,,,,,,,,,,,,,,,,,,,41.17627900000002,,,,,,,,,,,,,41.17078700000002,41.17627900000002,41.17627900000002,41.37735240000006,41.59491820000005,2,1,0.4145816999999852,None,41.595555500000046,41.60239350000006,41.60239350000006,41.80808950000005,42.0162785,42.010466000000065,42.01050710000004,42.0162785,42.710935300000074,,,,,,,,,,,,,,,,,,,,,,,,,,,,,,,,,,,,,,,,,,,,,,,,,,,,,,,,sub104,motor,2,0,2024-08-07_17h33.35.810,ASRT_motor,2023.2.3,143.13974160411303,2024-08-07 17h34.21.306806 +0800,
sequences/sub104_initial_random.csv,3,270,3,1,red,,,,0,0,0,0,0,22,22,22,,,,,,,,,,,,,,,,,,,,,,,,,,,,,42.71927690000007,,,,,,,,,,,,,42.71157200000005,42.71927690000007,42.71927690000007,42.919207400000005,43.08822400000008,1,1,0.36260360000005676,None,43.08897850000005,43.09479740000006,43.09479740000006,43.30106650000005,43.50922050000008,43.50427430000002,43.50432620000004,43.50922050000008,44.205007600000044,44.21092900000008,,,,,,,,,,,,,,,,,,,,,,,,,,,,,,,,,,,,,,,,,,,,,,,,,,,,,,,sub104,motor,2,0,2024-08-07_17h33.35.810,ASRT_motor,2023.2.3,143.13974160411303,2024-08-07 17h34.21.306806 +0800,
sequences/sub104_initial_random.csv,3,270,3,1,red,,,,0,0,0,0,0,23,23,23,,,,,,,,,,,,,,,,,,,,,,,,,,,,,44.21092900000008,,,,,,,,,,,,,44.20573400000001,44.21092900000008,44.21092900000008,44.412253100000044,44.576083200000085,1,1,0.36194929999999204,None,44.57677150000006,44.5849101,44.5849101,44.787178100000006,44.99539160000006,44.989880200000016,44.98997840000004,44.99539160000006,45.690801700000065,45.69634430000008,,,,,,,,,,,,,,,,,,,,,,,,,,,,,,,,,,,,,,,,,,,,,,,,,,,,,,,sub104,motor,2,0,2024-08-07_17h33.35.810,ASRT_motor,2023.2.3,143.13974160411303,2024-08-07 17h34.21.306806 +0800,
sequences/sub104_initial_random.csv,1,90,1,3,red,,,,0,0,0,0,0,24,24,24,,,,,,,,,,,,,,,,,,,,,,,,,,,,,45.69634430000008,,,,,,,,,,,,,45.69132390000004,45.69634430000008,45.69634430000008,45.898469999999975,46.129464400000074,3,1,0.4286143000000493,None,46.130091900000025,46.13618410000004,46.13618410000004,46.342435799999976,46.55088680000006,46.54564060000007,46.54569300000003,46.55088680000006,47.246791200000075,47.25697509999998,,,,,,,,,,,,,,,,,,,,,,,,,,,,,,,,,,,,,,,,,,,,,,,,,,,,,,,sub104,motor,2,0,2024-08-07_17h33.35.810,ASRT_motor,2023.2.3,143.13974160411303,2024-08-07 17h34.21.306806 +0800,
sequences/sub104_initial_random.csv,0,0,0,4,red,,,,0,0,0,0,0,25,25,25,,,,,,,,,,,,,,,,,,,,,,,,,,,,,47.25697509999998,,,,,,,,,,,,,47.247708800000055,47.25697509999998,47.25697509999998,47.460848899999974,47.67035350000003,4,1,0.40620780000006107,None,47.671229200000084,47.67588880000005,47.67588880000005,47.88707380000005,48.09278160000008,48.08738010000002,48.087463100000036,48.09278160000008,48.78805030000001,,,,,,,,,,,,,,,,,,,,,,,,,,,,,,,,,,,,,,,,,,,,,,,,,,,,,,,,sub104,motor,2,0,2024-08-07_17h33.35.810,ASRT_motor,2023.2.3,143.13974160411303,2024-08-07 17h34.21.306806 +0800,
sequences/sub104_initial_random.csv,2,180,2,2,red,,,,0,0,0,0,0,26,26,26,,,,,,,,,,,,,,,,,,,,,,,,,,,,,48.79506780000008,,,,,,,,,,,,,48.78871409999999,48.79506780000008,48.79506780000008,48.99525060000008,49.18639780000001,2,1,0.3828429000000142,None,49.18698390000009,49.19396770000003,49.19396770000003,49.39772110000001,49.60630170000002,49.601381100000026,49.60143560000006,49.60630170000002,50.30211070000007,50.30959430000007,,,,,,,,,,,,,,,,,,,,,,,,,,,,,,,,,,,,,,,,,,,,,,,,,,,,,,,sub104,motor,2,0,2024-08-07_17h33.35.810,ASRT_motor,2023.2.3,143.13974160411303,2024-08-07 17h34.21.306806 +0800,
sequences/sub104_initial_random.csv,0,0,0,4,red,,,,0,0,0,0,0,27,27,27,,,,,,,,,,,,,,,,,,,,,,,,,,,,,50.30959430000007,,,,,,,,,,,,,50.302900900000054,50.30959430000007,50.30959430000007,50.50926670000001,50.700875100000076,4,1,0.3822924000000967,None,50.701608700000065,50.70984610000005,50.70984610000005,50.91196660000003,51.11994030000005,51.11439470000005,51.1144276,51.11994030000005,51.81555100000003,,,,,,,,,,,,,,,,,,,,,,,,,,,,,,,,,,,,,,,,,,,,,,,,,,,,,,,,sub104,motor,2,0,2024-08-07_17h33.35.810,ASRT_motor,2023.2.3,143.13974160411303,2024-08-07 17h34.21.306806 +0800,
sequences/sub104_initial_random.csv,2,180,2,2,red,,,,0,0,0,0,0,28,28,28,,,,,,,,,,,,,,,,,,,,,,,,,,,,,51.821722600000044,,,,,,,,,,,,,51.81623710000008,51.821722600000044,51.821722600000044,52.0235467,52.157903900000065,2,1,0.33000529999992523,None,52.15856359999998,52.16515300000003,52.16515300000003,52.37043270000004,52.57880340000008,52.572587500000054,52.572628500000064,52.57880340000008,53.27295939999999,,,,,,,,,,,,,,,,,,,,,,,,,,,,,,,,,,,,,,,,,,,,,,,,,,,,,,,,sub104,motor,2,0,2024-08-07_17h33.35.810,ASRT_motor,2023.2.3,143.13974160411303,2024-08-07 17h34.21.306806 +0800,
sequences/sub104_initial_random.csv,0,0,0,4,red,,,,0,0,0,0,0,29,29,29,,,,,,,,,,,,,,,,,,,,,,,,,,,,,53.279676300000006,,,,,,,,,,,,,53.27359000000001,53.279676300000006,53.279676300000006,53.48150380000004,53.65751280000006,4,1,0.3728578000000198,None,53.65814399999999,53.66352230000007,53.66352230000007,53.87015050000002,54.07873760000007,54.072379700000056,54.07241529999999,54.07873760000007,54.77354460000004,,,,,,,,,,,,,,,,,,,,,,,,,,,,,,,,,,,,,,,,,,,,,,,,,,,,,,,,sub104,motor,2,0,2024-08-07_17h33.35.810,ASRT_motor,2023.2.3,143.13974160411303,2024-08-07 17h34.21.306806 +0800,
sequences/sub104_initial_random.csv,2,180,2,2,red,,,,0,0,0,0,0,30,30,30,,,,,,,,,,,,,,,,,,,,,,,,,,,,,54.779582000000005,,,,,,,,,,,,,54.774175300000024,54.779582000000005,54.779582000000005,54.981740400000035,55.16404740000007,2,1,0.378457600000047,None,55.16462610000008,55.17196009999998,55.17196009999998,55.37729009999998,55.58526930000005,55.57956200000001,55.57960200000002,55.58526930000005,56.27995740000006,,,,,,,,,,,,,,,,,,,,,,,,,,,,,,,,,,,,,,,,,,,,,,,,,,,,,,,,sub104,motor,2,0,2024-08-07_17h33.35.810,ASRT_motor,2023.2.3,143.13974160411303,2024-08-07 17h34.21.306806 +0800,
sequences/sub104_initial_random.csv,0,0,0,4,red,,,,0,0,0,0,0,31,31,31,,,,,,,,,,,,,,,,,,,,,,,,,,,,,56.28661360000001,,,,,,,,,,,,,56.28052690000004,56.28661360000001,56.28661360000001,56.488393700000074,56.602518799999984,4,1,0.3133062000000564,None,56.60313789999998,56.60971280000001,56.60971280000001,56.81430899999998,57.02303030000007,57.01698550000003,57.01702369999998,57.02303030000007,57.71751979999999,,,,,,,,,,,,,,,,,,,,,,,,,,,,,,,,,,,,,,,,,,,,,,,,,,,,,,,,sub104,motor,2,0,2024-08-07_17h33.35.810,ASRT_motor,2023.2.3,143.13974160411303,2024-08-07 17h34.21.306806 +0800,
sequences/sub104_initial_random.csv,2,180,2,2,red,,,,0,0,0,0,0,32,32,32,,,,,,,,,,,,,,,,,,,,,,,,,,,,,57.72397520000004,,,,,,,,,,,,,57.71813759999998,57.72397520000004,57.72397520000004,57.9255756,58.09624180000003,2,1,0.36782749999997577,None,58.09704650000003,58.10413690000007,58.10413690000007,58.307590600000026,58.515955000000076,58.50972039999999,58.509752700000035,58.515955000000076,59.21043140000006,,,,,,,,,,,,,,,,,,,,,,,,,,,,,,,,,,,,,,,,,,,,,,,,,,,,,,,,sub104,motor,2,0,2024-08-07_17h33.35.810,ASRT_motor,2023.2.3,143.13974160411303,2024-08-07 17h34.21.306806 +0800,
sequences/sub104_initial_random.csv,0,0,0,4,red,,,,0,0,0,0,0,33,33,33,,,,,,,,,,,,,,,,,,,,,,,,,,,,,59.2172448,,,,,,,,,,,,,59.21097090000001,59.2172448,59.2172448,59.41876090000005,59.60720390000006,4,1,0.3833055999999715,None,59.607707000000005,59.612649600000054,59.612649600000054,59.821117800000025,60.02970449999998,60.02432160000001,60.024362999999994,60.02970449999998,60.7247251,,,,,,,,,,,,,,,,,,,,,,,,,,,,,,,,,,,,,,,,,,,,,,,,,,,,,,,,sub104,motor,2,0,2024-08-07_17h33.35.810,ASRT_motor,2023.2.3,143.13974160411303,2024-08-07 17h34.21.306806 +0800,
sequences/sub104_initial_random.csv,1,90,1,3,red,,,,0,0,0,0,0,34,34,34,,,,,,,,,,,,,,,,,,,,,,,,,,,,,60.73135130000003,,,,,,,,,,,,,60.72527180000009,60.73135130000003,60.73135130000003,60.93240780000008,61.07956569999999,3,1,0.3417048999999679,None,61.080269199999975,61.08499960000006,61.08499960000006,61.29344630000003,61.50166580000007,61.49602730000004,61.496065900000076,61.50166580000007,62.19691210000008,,,,,,,,,,,,,,,,,,,,,,,,,,,,,,,,,,,,,,,,,,,,,,,,,,,,,,,,sub104,motor,2,0,2024-08-07_17h33.35.810,ASRT_motor,2023.2.3,143.13974160411303,2024-08-07 17h34.21.306806 +0800,
sequences/sub104_initial_random.csv,0,0,0,4,red,,,,0,0,0,0,0,35,35,35,,,,,,,,,,,,,,,,,,,,,,,,,,,,,62.203233700000055,,,,,,,,,,,,,62.19756380000001,62.203233700000055,62.203233700000055,62.40514289999999,62.538565199999994,4,1,0.32937679999997727,None,62.53915749999999,62.54604410000002,62.54604410000002,62.7518781,62.960557600000016,62.95397509999998,62.95401370000002,62.960557600000016,63.65497060000007,,,,,,,,,,,,,,,,,,,,,,,,,,,,,,,,,,,,,,,,,,,,,,,,,,,,,,,,sub104,motor,2,0,2024-08-07_17h33.35.810,ASRT_motor,2023.2.3,143.13974160411303,2024-08-07 17h34.21.306806 +0800,
sequences/sub104_initial_random.csv,1,90,1,3,red,,,,0,0,0,0,0,36,36,36,,,,,,,,,,,,,,,,,,,,,,,,,,,,,63.66136430000006,,,,,,,,,,,,,63.655681800000025,63.66136430000006,63.66136430000006,63.863262700000064,64.0459224,3,1,0.3811914999999999,None,64.04652350000003,64.05285230000004,64.05285230000004,64.25862990000007,64.46707760000004,64.46145880000006,64.46149969999999,64.46707760000004,65.16231010000001,,,,,,,,,,,,,,,,,,,,,,,,,,,,,,,,,,,,,,,,,,,,,,,,,,,,,,,,sub104,motor,2,0,2024-08-07_17h33.35.810,ASRT_motor,2023.2.3,143.13974160411303,2024-08-07 17h34.21.306806 +0800,
sequences/sub104_initial_random.csv,1,90,1,3,red,,,,0,0,0,0,0,37,37,37,,,,,,,,,,,,,,,,,,,,,,,,,,,,,65.16867610000008,,,,,,,,,,,,,65.16283930000009,65.16867610000008,65.16867610000008,65.36994130000005,65.56683959999998,3,1,0.39498460000004343,None,65.56739500000003,65.57346500000006,65.57346500000006,65.78051950000008,65.98945509999999,65.98355690000005,65.98360660000003,65.98945509999999,66.68399850000003,66.6903403,,,,,,,,,,,,,,,,,,,,,,,,,,,,,,,,,,,,,,,,,,,,,,,,,,,,,,,sub104,motor,2,0,2024-08-07_17h33.35.810,ASRT_motor,2023.2.3,143.13974160411303,2024-08-07 17h34.21.306806 +0800,
sequences/sub104_initial_random.csv,1,90,1,3,red,,,,0,0,0,0,0,38,38,38,,,,,,,,,,,,,,,,,,,,,,,,,,,,,66.6903403,,,,,,,,,,,,,66.68466540000009,66.6903403,66.6903403,66.8907633,67.06825309999999,3,1,0.3749514999999519,None,67.06891910000002,67.07521380000003,67.07521380000003,67.27955470000006,67.48798570000008,67.48238809999998,67.48242990000006,67.48798570000008,68.18293490000008,,,,,,,,,,,,,,,,,,,,,,,,,,,,,,,,,,,,,,,,,,,,,,,,,,,,,,,,sub104,motor,2,0,2024-08-07_17h33.35.810,ASRT_motor,2023.2.3,143.13974160411303,2024-08-07 17h34.21.306806 +0800,
sequences/sub104_initial_random.csv,3,270,3,1,red,,,,0,0,0,0,0,39,39,39,,,,,,,,,,,,,,,,,,,,,,,,,,,,,68.18903569999998,,,,,,,,,,,,,68.18342949999999,68.18903569999998,68.18903569999998,68.39061820000006,68.5452722,2,0,0.35096390000001065,None,68.54583209999998,68.55198570000005,68.55198570000005,68.75872620000007,68.96686480000005,68.96106470000007,68.96109780000006,68.96686480000005,69.66139290000001,,,,,,,,,,,,,,,,,,,,,,,,,,,,,,,,,,,,,,,,,,,,,,,,,,,,,,,,sub104,motor,2,0,2024-08-07_17h33.35.810,ASRT_motor,2023.2.3,143.13974160411303,2024-08-07 17h34.21.306806 +0800,
sequences/sub104_initial_random.csv,3,270,3,1,red,,,,0,0,0,0,0,40,40,40,,,,,,,,,,,,,,,,,,,,,,,,,,,,,69.66840380000008,,,,,,,,,,,,,69.66210480000007,69.66840380000008,69.66840380000008,69.86986120000006,70.02483770000003,1,1,0.3510516999999709,None,70.02542060000007,70.03458260000002,70.03458260000002,70.23776970000006,70.44616930000007,70.44009119999998,70.44011899999998,70.44616930000007,71.14152790000003,,,,,,,,,,,,,,,,,,,,,,,,,,,,,,,,,,,,,,,,,,,,,,,,,,,,,,,,sub104,motor,2,0,2024-08-07_17h33.35.810,ASRT_motor,2023.2.3,143.13974160411303,2024-08-07 17h34.21.306806 +0800,
sequences/sub104_initial_random.csv,0,0,0,4,red,,,,0,0,0,0,0,41,41,41,,,,,,,,,,,,,,,,,,,,,,,,,,,,,71.1473949,,,,,,,,,,,,,71.14207880000004,71.1473949,71.1473949,71.34893550000004,71.5238316,4,1,0.3691174000000501,None,71.52428429999998,71.52952970000001,71.52952970000001,71.73773949999998,71.94616710000003,71.93992170000001,71.93995670000004,71.94616710000003,72.64121480000006,,,,,,,,,,,,,,,,,,,,,,,,,,,,,,,,,,,,,,,,,,,,,,,,,,,,,,,,sub104,motor,2,0,2024-08-07_17h33.35.810,ASRT_motor,2023.2.3,143.13974160411303,2024-08-07 17h34.21.306806 +0800,
sequences/sub104_initial_random.csv,2,180,2,2,red,,,,0,0,0,0,0,42,42,42,,,,,,,,,,,,,,,,,,,,,,,,,,,,,72.64813630000003,,,,,,,,,,,,,72.64184820000003,72.64813630000003,72.64813630000003,72.84924310000008,73.08035940000002,2,1,0.42562769999995,None,73.08104309999999,73.08766980000007,73.08766980000007,73.29358350000007,73.50257929999998,73.49626139999998,73.4963057,73.50257929999998,74.19652789999998,,,,,,,,,,,,,,,,,,,,,,,,,,,,,,,,,,,,,,,,,,,,,,,,,,,,,,,,sub104,motor,2,0,2024-08-07_17h33.35.810,ASRT_motor,2023.2.3,143.13974160411303,2024-08-07 17h34.21.306806 +0800,
sequences/sub104_initial_random.csv,2,180,2,2,red,,,,0,0,0,0,0,43,43,43,,,,,,,,,,,,,,,,,,,,,,,,,,,,,74.2030552,,,,,,,,,,,,,74.19715960000008,74.2030552,74.2030552,74.40463020000004,74.54687260000003,3,0,0.3409227000000783,None,74.5475715,74.56084380000004,74.56084380000004,74.75863939999999,74.96670760000006,74.96138530000007,74.9614378,74.96670760000006,75.66210269999999,75.66800080000007,,,,,,,,,,,,,,,,,,,,,,,,,,,,,,,,,,,,,,,,,,,,,,,,,,,,,,,sub104,motor,2,0,2024-08-07_17h33.35.810,ASRT_motor,2023.2.3,143.13974160411303,2024-08-07 17h34.21.306806 +0800,
sequences/sub104_initial_random.csv,0,0,0,4,red,,,,0,0,0,0,0,44,44,44,,,,,,,,,,,,,,,,,,,,,,,,,,,,,75.66800080000007,,,,,,,,,,,,,75.66263609999999,75.66800080000007,75.66800080000007,75.87044270000001,76.12168559999998,4,1,0.44693150000000514,None,76.12234940000008,76.12819109999998,76.12819109999998,76.33495049999999,76.54343010000002,76.53774050000004,76.53778020000004,76.54343010000002,77.23824120000006,,,,,,,,,,,,,,,,,,,,,,,,,,,,,,,,,,,,,,,,,,,,,,,,,,,,,,,,sub104,motor,2,0,2024-08-07_17h33.35.810,ASRT_motor,2023.2.3,143.13974160411303,2024-08-07 17h34.21.306806 +0800,
sequences/sub104_initial_random.csv,3,270,3,1,red,,,,0,0,0,0,0,45,45,45,,,,,,,,,,,,,,,,,,,,,,,,,,,,,77.24462500000004,,,,,,,,,,,,,77.23884750000002,77.24462500000004,77.24462500000004,77.44619010000008,77.65699910000001,1,1,0.4047027999999955,None,77.65803240000002,77.66410560000008,77.66410560000008,77.86948360000008,78.07791880000002,78.07219410000005,78.07223870000007,78.07791880000002,78.77227249999999,,,,,,,,,,,,,,,,,,,,,,,,,,,,,,,,,,,,,,,,,,,,,,,,,,,,,,,,sub104,motor,2,0,2024-08-07_17h33.35.810,ASRT_motor,2023.2.3,143.13974160411303,2024-08-07 17h34.21.306806 +0800,
sequences/sub104_initial_random.csv,2,180,2,2,red,,,,0,0,0,0,0,46,46,46,,,,,,,,,,,,,,,,,,,,,,,,,,,,,78.77926150000008,,,,,,,,,,,,,78.77251890000002,78.77926150000008,78.77926150000008,78.98080200000004,79.10889480000003,2,1,0.32515780000005634,None,79.10997580000003,79.11664780000001,79.11664780000001,79.32119030000001,79.5291178,79.52366860000006,79.5237022,79.5291178,80.22458860000006,80.23031190000006,,,,,,,,,,,,,,,,,,,,,,,,,,,,,,,,,,,,,,,,,,,,,,,,,,,,,,,sub104,motor,2,0,2024-08-07_17h33.35.810,ASRT_motor,2023.2.3,143.13974160411303,2024-08-07 17h34.21.306806 +0800,
sequences/sub104_initial_random.csv,3,270,3,1,red,,,,0,0,0,0,0,47,47,47,,,,,,,,,,,,,,,,,,,,,,,,,,,,,80.23031190000006,,,,,,,,,,,,,80.22507400000006,80.23031190000006,80.23031190000006,80.43222950000006,80.58823610000002,1,1,0.3550649000000021,None,80.5889555,80.59571000000005,80.59571000000005,80.80011480000007,81.00843029999999,81.00239840000006,81.00243139999998,81.00843029999999,81.70295910000004,,,,,,,,,,,,,,,,,,,,,,,,,,,,,,,,,,,,,,,,,,,,,,,,,,,,,,,,sub104,motor,2,0,2024-08-07_17h33.35.810,ASRT_motor,2023.2.3,143.13974160411303,2024-08-07 17h34.21.306806 +0800,
sequences/sub104_initial_random.csv,3,270,3,1,red,,,,0,0,0,0,0,48,48,48,,,,,,,,,,,,,,,,,,,,,,,,,,,,,81.70956320000005,,,,,,,,,,,,,81.70352380000008,81.70956320000005,81.70956320000005,81.91127170000004,82.12246860000005,1,1,0.41022290000000794,None,82.12304540000002,82.1291923,82.1291923,82.33509560000005,82.54341850000003,82.53783900000008,82.53787360000001,82.54341850000003,83.2380293,,,,,,,,,,,,,,,,,,,,,,,,,,,,,,,,,,,,,,,,,,,,,,,,,,,,,,,,sub104,motor,2,0,2024-08-07_17h33.35.810,ASRT_motor,2023.2.3,143.13974160411303,2024-08-07 17h34.21.306806 +0800,
sequences/sub104_initial_random.csv,1,90,1,3,red,,,,0,0,0,0,0,49,49,49,,,,,,,,,,,,,,,,,,,,,,,,,,,,,83.24622699999998,,,,,,,,,,,,,83.23888510000006,83.24622699999998,83.24622699999998,83.44604000000004,83.70542880000005,3,1,0.4523047000000133,None,83.70616400000006,83.71240350000005,83.71240350000005,83.91800369999999,84.12638880000009,84.12084440000001,84.12088700000004,84.12638880000009,84.82097529999999,,,,,,,,,,,,,,,,,,,,,,,,,,,,,,,,,,,,,,,,,,,,,,,,,,,,,,,,sub104,motor,2,0,2024-08-07_17h33.35.810,ASRT_motor,2023.2.3,143.13974160411303,2024-08-07 17h34.21.306806 +0800,
sequences/sub104_initial_random.csv,0,0,0,4,red,,,,0,0,0,0,0,50,50,50,,,,,,,,,,,,,,,,,,,,,,,,,,,,,84.82775270000002,,,,,,,,,,,,,84.82166419999999,84.82775270000002,84.82775270000002,85.02935560000003,85.16353490000006,4,1,0.3288462000000436,None,85.16412930000001,85.16915879999999,85.16915879999999,85.37686970000004,85.58482620000007,85.57906480000008,85.57909970000003,85.58482620000007,86.2798391,,,,,,,,,,,,,,,,,,,,,,,,,,,,,,,,,,,,,,,,,,,,,,,,,,,,,,,,sub104,motor,2,0,2024-08-07_17h33.35.810,ASRT_motor,2023.2.3,143.13974160411303,2024-08-07 17h34.21.306806 +0800,
sequences/sub104_initial_random.csv,3,270,3,1,red,,,,0,0,0,0,0,51,51,51,,,,,,,,,,,,,,,,,,,,,,,,,,,,,86.28693440000006,,,,,,,,,,,,,86.28048999999999,86.28693440000006,86.28693440000006,86.48766239999998,86.67670010000006,2,0,0.38227180000001226,None,86.67722550000008,86.68686330000003,86.68686330000003,86.89050900000007,87.09858970000005,87.0935581,87.09361109999998,87.09858970000005,87.79425260000005,87.80017240000006,,,,,,,,,,,,,,,,,,,,,,,,,,,,,,,,,,,,,,,,,,,,,,,,,,,,,,,sub104,motor,2,0,2024-08-07_17h33.35.810,ASRT_motor,2023.2.3,143.13974160411303,2024-08-07 17h34.21.306806 +0800,
sequences/sub104_initial_random.csv,3,270,3,1,red,,,,0,0,0,0,0,52,52,52,,,,,,,,,,,,,,,,,,,,,,,,,,,,,87.80017240000006,,,,,,,,,,,,,87.79478920000008,87.80017240000006,87.80017240000006,88.00157660000002,88.22693140000001,1,1,0.421761399999923,None,88.22763200000009,88.23469880000005,88.23469880000005,88.43888390000006,88.6471143,88.64100710000002,88.6410416,88.6471143,89.34288690000005,,,,,,,,,,,,,,,,,,,,,,,,,,,,,,,,,,,,,,,,,,,,,,,,,,,,,,,,sub104,motor,2,0,2024-08-07_17h33.35.810,ASRT_motor,2023.2.3,143.13974160411303,2024-08-07 17h34.21.306806 +0800,
sequences/sub104_initial_random.csv,3,270,3,1,red,,,,0,0,0,0,0,53,53,53,,,,,,,,,,,,,,,,,,,,,,,,,,,,,89.34984910000003,,,,,,,,,,,,,89.34354330000008,89.34984910000003,89.34984910000003,89.55020730000001,89.71876380000003,1,1,0.36640239999996993,None,89.71934750000003,89.72557400000005,89.72557400000005,89.94051940000008,90.14023859999998,90.13480230000005,90.13484300000005,90.14023859999998,90.83506190000003,,,,,,,,,,,,,,,,,,,,,,,,,,,,,,,,,,,,,,,,,,,,,,,,,,,,,,,,sub104,motor,2,0,2024-08-07_17h33.35.810,ASRT_motor,2023.2.3,143.13974160411303,2024-08-07 17h34.21.306806 +0800,
sequences/sub104_initial_random.csv,2,180,2,2,red,,,,0,0,0,0,0,54,54,54,,,,,,,,,,,,,,,,,,,,,,,,,,,,,90.84142970000005,,,,,,,,,,,,,90.83563290000006,90.84142970000005,90.84142970000005,91.04365840000003,91.2682681,2,1,0.42410740000002534,None,91.26884319999999,91.27366310000002,91.27366310000002,91.48066870000002,91.6888189,91.68282340000007,91.68285500000002,91.6888189,92.38361240000006,,,,,,,,,,,,,,,,,,,,,,,,,,,,,,,,,,,,,,,,,,,,,,,,,,,,,,,,sub104,motor,2,0,2024-08-07_17h33.35.810,ASRT_motor,2023.2.3,143.13974160411303,2024-08-07 17h34.21.306806 +0800,
sequences/sub104_initial_random.csv,1,90,1,3,red,,,,0,0,0,0,0,55,55,55,,,,,,,,,,,,,,,,,,,,,,,,,,,,,92.3901247,,,,,,,,,,,,,92.38411530000008,92.3901247,92.3901247,92.59179410000002,92.78085299999998,3,1,0.3869746000000305,None,92.78145200000006,92.78616260000001,92.78616260000001,92.99413760000004,93.20281510000007,93.19711710000001,93.19716210000001,93.20281510000007,93.89799390000007,93.90380090000008,,,,,,,,,,,,,,,,,,,,,,,,,,,,,,,,,,,,,,,,,,,,,,,,,,,,,,,sub104,motor,2,0,2024-08-07_17h33.35.810,ASRT_motor,2023.2.3,143.13974160411303,2024-08-07 17h34.21.306806 +0800,
sequences/sub104_initial_random.csv,0,0,0,4,red,,,,0,0,0,0,0,56,56,56,,,,,,,,,,,,,,,,,,,,,,,,,,,,,93.90380090000008,,,,,,,,,,,,,93.89854280000009,93.90380090000008,93.90380090000008,94.10560520000001,94.23321370000008,4,1,0.32355889999996634,None,94.23388420000003,94.24069980000002,94.24069980000002,94.44550200000003,94.65384019999999,94.64818380000008,94.64822020000008,94.65384019999999,95.348479,,,,,,,,,,,,,,,,,,,,,,,,,,,,,,,,,,,,,,,,,,,,,,,,,,,,,,,,sub104,motor,2,0,2024-08-07_17h33.35.810,ASRT_motor,2023.2.3,143.13974160411303,2024-08-07 17h34.21.306806 +0800,
sequences/sub104_initial_random.csv,1,90,1,3,red,,,,0,0,0,0,0,57,57,57,,,,,,,,,,,,,,,,,,,,,,,,,,,,,95.35516289999998,,,,,,,,,,,,,95.34895979999999,95.35516289999998,95.35516289999998,95.55700360000003,95.68356440000002,3,1,0.3233999000000267,None,95.6841723,95.68863160000001,95.68863160000001,95.89761470000008,96.10623540000006,96.10037729999999,96.10042800000008,96.10623540000006,96.80094020000001,96.80721340000002,,,,,,,,,,,,,,,,,,,,,,,,,,,,,,,,,,,,,,,,,,,,,,,,,,,,,,,sub104,motor,2,0,2024-08-07_17h33.35.810,ASRT_motor,2023.2.3,143.13974160411303,2024-08-07 17h34.21.306806 +0800,
sequences/sub104_initial_random.csv,0,0,0,4,red,,,,0,0,0,0,0,58,58,58,,,,,,,,,,,,,,,,,,,,,,,,,,,,,96.80721340000002,,,,,,,,,,,,,96.8015107,96.80721340000002,96.80721340000002,97.00817140000004,97.19927380000001,4,1,0.3890447999999651,None,97.19999110000003,97.20659069999999,97.20659069999999,97.41066339999998,97.61915160000001,97.61338910000006,97.61342380000008,97.61915160000001,98.31460300000003,,,,,,,,,,,,,,,,,,,,,,,,,,,,,,,,,,,,,,,,,,,,,,,,,,,,,,,,sub104,motor,2,0,2024-08-07_17h33.35.810,ASRT_motor,2023.2.3,143.13974160411303,2024-08-07 17h34.21.306806 +0800,
sequences/sub104_initial_random.csv,2,180,2,2,red,,,,0,0,0,0,0,59,59,59,,,,,,,,,,,,,,,,,,,,,,,,,,,,,98.32170610000003,,,,,,,,,,,,,98.31543380000005,98.32170610000003,98.32170610000003,98.5222685,98.82446130000005,2,1,0.4992332000000488,None,98.82517000000007,98.83454080000001,98.83454080000001,99.0361183,99.24507019999999,99.23898989999998,99.23904160000006,99.24507019999999,99.93956350000008,99.9467644,,,,,,,,,,,,,,,,,,,,,,,,,,,,,,,,,,,,,,,,,,,,,,,,,,,,,,,sub104,motor,2,0,2024-08-07_17h33.35.810,ASRT_motor,2023.2.3,143.13974160411303,2024-08-07 17h34.21.306806 +0800,
sequences/sub104_initial_random.csv,1,90,1,3,red,,,,0,0,0,0,0,60,60,60,,,,,,,,,,,,,,,,,,,,,,,,,,,,,99.9467644,,,,,,,,,,,,,99.94019939999998,99.9467644,99.9467644,100.14706690000003,100.37201100000004,3,1,0.42154599999992115,None,100.37261550000005,100.37979510000002,100.37979510000002,100.58433610000009,100.79299179999998,100.78753870000003,100.78759030000003,100.79299179999998,101.48848040000007,101.49441209999998,,,,,,,,,,,,,,,,,,,,,,,,,,,,,,,,,,,,,,,,,,,,,,,,,,,,,,,sub104,motor,2,0,2024-08-07_17h33.35.810,ASRT_motor,2023.2.3,143.13974160411303,2024-08-07 17h34.21.306806 +0800,
sequences/sub104_initial_random.csv,2,180,2,2,red,,,,0,0,0,0,0,61,61,61,,,,,,,,,,,,,,,,,,,,,,,,,,,,,101.49441209999998,,,,,,,,,,,,,101.48906169999998,101.49441209999998,101.49441209999998,101.69558140000004,101.96152470000004,2,1,0.45976150000001326,None,101.96212209999999,101.96690469999999,101.96690469999999,102.17458269999997,102.38340130000006,102.37748540000007,102.37753700000007,102.38340130000006,103.07833860000005,103.08441850000008,,,,,,,,,,,,,,,,,,,,,,,,,,,,,,,,,,,,,,,,,,,,,,,,,,,,,,,sub104,motor,2,0,2024-08-07_17h33.35.810,ASRT_motor,2023.2.3,143.13974160411303,2024-08-07 17h34.21.306806 +0800,
sequences/sub104_initial_random.csv,2,180,2,2,red,,,,0,0,0,0,0,62,62,62,,,,,,,,,,,,,,,,,,,,,,,,,,,,,103.08441850000008,,,,,,,,,,,,,103.07886810000002,103.08441850000008,103.08441850000008,103.2858688,103.46818500000006,2,1,0.37629729999991923,None,103.46872940000003,103.47472060000007,103.47472060000007,103.68194040000003,103.88966530000005,103.88393930000007,103.88397150000003,103.88966530000005,104.58430529999998,,,,,,,,,,,,,,,,,,,,,,,,,,,,,,,,,,,,,,,,,,,,,,,,,,,,,,,,sub104,motor,2,0,2024-08-07_17h33.35.810,ASRT_motor,2023.2.3,143.13974160411303,2024-08-07 17h34.21.306806 +0800,
sequences/sub104_initial_random.csv,3,270,3,1,red,,,,0,0,0,0,0,63,63,63,,,,,,,,,,,,,,,,,,,,,,,,,,,,,104.59112860000005,,,,,,,,,,,,,104.58482920000006,104.59112860000005,104.59112860000005,104.79284690000009,105.01815220000003,1,1,0.4238450999999941,None,105.01868239999999,105.02441499999998,105.02441499999998,105.23057000000006,105.43835690000003,105.43213279999998,105.43216900000004,105.43835690000003,106.13306810000006,,,,,,,,,,,,,,,,,,,,,,,,,,,,,,,,,,,,,,,,,,,,,,,,,,,,,,,,sub104,motor,2,0,2024-08-07_17h33.35.810,ASRT_motor,2023.2.3,143.13974160411303,2024-08-07 17h34.21.306806 +0800,
sequences/sub104_initial_random.csv,2,180,2,2,red,,,,0,0,0,0,0,64,64,64,,,,,,,,,,,,,,,,,,,,,,,,,,,,,106.14129910000008,,,,,,,,,,,,,106.13408149999998,106.14129910000008,106.14129910000008,106.34126780000008,106.58642450000002,2,1,0.4397730999999112,None,106.58708469999999,106.5933053,106.5933053,106.7999575,107.00768570000002,107.00228370000002,107.0023334,107.00768570000002,107.70304040000008,,,,,,,,,,,,,,,,,,,,,,,,,,,,,,,,,,,,,,,,,,,,,,,,,,,,,,,,sub104,motor,2,0,2024-08-07_17h33.35.810,ASRT_motor,2023.2.3,143.13974160411303,2024-08-07 17h34.21.306806 +0800,
sequences/sub104_initial_random.csv,1,90,1,3,red,,,,0,0,0,0,0,65,65,65,,,,,,,,,,,,,,,,,,,,,,,,,,,,,107.70894099999998,,,,,,,,,,,,,107.70364840000002,107.70894099999998,107.70894099999998,107.91094989999999,108.05856530000005,3,1,0.3439562000000933,None,108.05922759999999,108.0650776,108.0650776,108.27147280000008,108.4798045,108.47486049999998,108.47491020000007,108.4798045,109.17580970000006,109.18149340000002,,,,,,,,,,,,,,,,,,,,,,,,,,,,,,,,,,,,,,,,,,,,,,,,,,,,,,,sub104,motor,2,0,2024-08-07_17h33.35.810,ASRT_motor,2023.2.3,143.13974160411303,2024-08-07 17h34.21.306806 +0800,
sequences/sub104_initial_random.csv,3,270,3,1,red,,,,0,0,0,0,0,66,66,66,,,,,,,,,,,,,,,,,,,,,,,,,,,,,109.18149340000002,,,,,,,,,,,,,109.1766093,109.18149340000002,109.18149340000002,109.38286760000005,109.56665229999999,1,1,0.3799581999999191,None,109.56745599999999,109.57982660000005,109.57982660000005,109.77871470000002,109.98721320000004,109.9815744,109.98162509999997,109.98721320000004,110.68211050000002,,,,,,,,,,,,,,,,,,,,,,,,,,,,,,,,,,,,,,,,,,,,,,,,,,,,,,,,sub104,motor,2,0,2024-08-07_17h33.35.810,ASRT_motor,2023.2.3,143.13974160411303,2024-08-07 17h34.21.306806 +0800,
sequences/sub104_initial_random.csv,1,90,1,3,red,,,,0,0,0,0,0,67,67,67,,,,,,,,,,,,,,,,,,,,,,,,,,,,,110.68877750000001,,,,,,,,,,,,,110.68268680000006,110.68877750000001,110.68877750000001,110.88968490000002,111.08681280000008,3,1,0.3911927999999989,None,111.08770360000005,111.09534130000009,111.09534130000009,111.29934500000002,111.50770950000003,111.50175650000006,111.501799,111.50770950000003,112.20246530000009,,,,,,,,,,,,,,,,,,,,,,,,,,,,,,,,,,,,,,,,,,,,,,,,,,,,,,,,sub104,motor,2,0,2024-08-07_17h33.35.810,ASRT_motor,2023.2.3,143.13974160411303,2024-08-07 17h34.21.306806 +0800,
sequences/sub104_initial_random.csv,1,90,1,3,red,,,,0,0,0,0,0,68,68,68,,,,,,,,,,,,,,,,,,,,,,,,,,,,,112.20889090000003,,,,,,,,,,,,,112.20315900000003,112.20889090000003,112.20889090000003,112.4107507,112.58666720000008,3,1,0.370849499999963,None,112.58737880000001,112.594113,112.594113,112.79980880000005,113.00774430000001,113.00222780000001,113.0022725,113.00774430000001,113.7025208,,,,,,,,,,,,,,,,,,,,,,,,,,,,,,,,,,,,,,,,,,,,,,,,,,,,,,,,sub104,motor,2,0,2024-08-07_17h33.35.810,ASRT_motor,2023.2.3,143.13974160411303,2024-08-07 17h34.21.306806 +0800,
sequences/sub104_initial_random.csv,1,90,1,3,red,,,,0,0,0,0,0,69,69,69,,,,,,,,,,,,,,,,,,,,,,,,,,,,,113.70911810000007,,,,,,,,,,,,,113.70313629999998,113.70911810000007,113.70911810000007,113.91053099999999,114.05058870000005,3,1,0.33486629999993056,None,114.0511831,114.0566622,114.0566622,114.26448860000005,114.4726809,114.46713169999998,114.46716579999998,114.4726809,115.16789949999998,,,,,,,,,,,,,,,,,,,,,,,,,,,,,,,,,,,,,,,,,,,,,,,,,,,,,,,,sub104,motor,2,0,2024-08-07_17h33.35.810,ASRT_motor,2023.2.3,143.13974160411303,2024-08-07 17h34.21.306806 +0800,
sequences/sub104_initial_random.csv,2,180,2,2,red,,,,0,0,0,0,0,70,70,70,,,,,,,,,,,,,,,,,,,,,,,,,,,,,115.17449950000002,,,,,,,,,,,,,115.16854130000002,115.17449950000002,115.17449950000002,115.37573859999998,115.54427680000003,2,1,0.3622047000000066,None,115.54488720000006,115.550974,115.550974,115.75771889999999,115.96609840000008,115.96033269999998,115.96037840000008,115.96609840000008,116.66128630000003,,,,,,,,,,,,,,,,,,,,,,,,,,,,,,,,,,,,,,,,,,,,,,,,,,,,,,,,sub104,motor,2,0,2024-08-07_17h33.35.810,ASRT_motor,2023.2.3,143.13974160411303,2024-08-07 17h34.21.306806 +0800,
sequences/sub104_initial_random.csv,1,90,1,3,red,,,,0,0,0,0,0,71,71,71,,,,,,,,,,,,,,,,,,,,,,,,,,,,,116.6682257,,,,,,,,,,,,,116.66200260000005,116.6682257,116.6682257,116.86898350000001,117.00894730000005,3,1,0.3364215000000286,None,117.00957119999998,117.01468169999998,117.01468169999998,117.2229711,117.43114109999999,117.42640200000005,117.42644660000008,117.43114109999999,118.126802,118.13224190000005,,,,,,,,,,,,,,,,,,,,,,,,,,,,,,,,,,,,,,,,,,,,,,,,,,,,,,,sub104,motor,2,0,2024-08-07_17h33.35.810,ASRT_motor,2023.2.3,143.13974160411303,2024-08-07 17h34.21.306806 +0800,
sequences/sub104_initial_random.csv,1,90,1,3,red,,,,0,0,0,0,0,72,72,72,,,,,,,,,,,,,,,,,,,,,,,,,,,,,118.13224190000005,,,,,,,,,,,,,118.12734020000005,118.13224190000005,118.13224190000005,118.33453380000003,118.48122080000007,3,1,0.3424942999999985,None,118.4817448,118.48663050000005,118.48663050000005,118.69512750000001,118.90337729999999,118.89747140000009,118.89750839999999,118.90337729999999,119.59899689999997,,,,,,,,,,,,,,,,,,,,,,,,,,,,,,,,,,,,,,,,,,,,,,,,,,,,,,,,sub104,motor,2,0,2024-08-07_17h33.35.810,ASRT_motor,2023.2.3,143.13974160411303,2024-08-07 17h34.21.306806 +0800,
sequences/sub104_initial_random.csv,3,270,3,1,red,,,,0,0,0,0,0,73,73,73,,,,,,,,,,,,,,,,,,,,,,,,,,,,,119.60708740000007,,,,,,,,,,,,,119.59971770000004,119.60708740000007,119.60708740000007,119.81315519999998,119.89916820000008,1,1,0.2895112999999583,None,119.89977010000007,119.90561280000009,119.90561280000009,120.11160140000004,120.31987230000004,120.31473720000008,120.31478500000003,120.31987230000004,121.01562390000004,121.02350109999998,,,,,,,,,,,,,,,,,,,,,,,,,,,,,,,,,,,,,,,,,,,,,,,,,,,,,,,sub104,motor,2,0,2024-08-07_17h33.35.810,ASRT_motor,2023.2.3,143.13974160411303,2024-08-07 17h34.21.306806 +0800,
sequences/sub104_initial_random.csv,1,90,1,3,red,,,,0,0,0,0,0,74,74,74,,,,,,,,,,,,,,,,,,,,,,,,,,,,,121.02350109999998,,,,,,,,,,,,,121.01628310000001,121.02350109999998,121.02350109999998,121.22289840000008,121.38555270000006,3,1,0.35534310000002733,None,121.38626510000006,121.39280610000003,121.39280610000003,121.59803490000002,121.80621130000009,121.80068360000007,121.8007374,121.80621130000009,122.50108669999997,,,,,,,,,,,,,,,,,,,,,,,,,,,,,,,,,,,,,,,,,,,,,,,,,,,,,,,,sub104,motor,2,0,2024-08-07_17h33.35.810,ASRT_motor,2023.2.3,143.13974160411303,2024-08-07 17h34.21.306806 +0800,
sequences/sub104_initial_random.csv,1,90,1,3,red,,,,0,0,0,0,0,75,75,75,,,,,,,,,,,,,,,,,,,,,,,,,,,,,122.50791900000002,,,,,,,,,,,,,122.50163650000002,122.50791900000002,122.50791900000002,122.70962580000003,122.86442799999998,3,1,0.3517912999999453,None,122.86502600000006,122.87052019999999,122.87052019999999,123.07706440000004,123.28505810000001,123.27985510000008,123.27990090000003,123.28505810000001,123.98076609999998,,,,,,,,,,,,,,,,,,,,,,,,,,,,,,,,,,,,,,,,,,,,,,,,,,,,,,,,sub104,motor,2,0,2024-08-07_17h33.35.810,ASRT_motor,2023.2.3,143.13974160411303,2024-08-07 17h34.21.306806 +0800,
sequences/sub104_initial_random.csv,0,0,0,4,red,,,,0,0,0,0,0,76,76,76,,,,,,,,,,,,,,,,,,,,,,,,,,,,,123.98797890000003,,,,,,,,,,,,,123.9819678,123.98797890000003,123.98797890000003,124.18794279999997,124.4744528,4,1,0.4813370000000532,None,124.47513420000007,124.48223990000008,124.48223990000008,124.68829849999997,124.89659410000002,124.89046440000004,124.89050510000004,124.89659410000002,125.59159690000001,,,,,,,,,,,,,,,,,,,,,,,,,,,,,,,,,,,,,,,,,,,,,,,,,,,,,,,,sub104,motor,2,0,2024-08-07_17h33.35.810,ASRT_motor,2023.2.3,143.13974160411303,2024-08-07 17h34.21.306806 +0800,
sequences/sub104_initial_random.csv,0,0,0,4,red,,,,0,0,0,0,0,77,77,77,,,,,,,,,,,,,,,,,,,,,,,,,,,,,125.6000884,,,,,,,,,,,,,125.59236659999999,125.6000884,125.6000884,125.79949210000007,125.99532599999998,3,0,0.3878930000000764,None,125.99602930000003,126.00344610000002,126.00344610000002,126.20883079999999,126.41763160000005,126.41143110000007,126.41146520000007,126.41763160000005,127.11221699999999,,,,,,,,,,,,,,,,,,,,,,,,,,,,,,,,,,,,,,,,,,,,,,,,,,,,,,,,sub104,motor,2,0,2024-08-07_17h33.35.810,ASRT_motor,2023.2.3,143.13974160411303,2024-08-07 17h34.21.306806 +0800,
sequences/sub104_initial_random.csv,2,180,2,2,red,,,,0,0,0,0,0,78,78,78,,,,,,,,,,,,,,,,,,,,,,,,,,,,,127.12115470000003,,,,,,,,,,,,,127.11294199999998,127.12115470000003,127.12115470000003,127.32764020000002,127.4756152,2,1,0.3519019999999955,None,127.47631990000002,127.4833959,127.4833959,127.6878577,127.89810050000006,127.89187200000003,127.89193069999999,127.89810050000006,128.59183280000002,128.5979238,,,,,,,,,,,,,,,,,,,,,,,,,,,,,,,,,,,,,,,,,,,,,,,,,,,,,,,sub104,motor,2,0,2024-08-07_17h33.35.810,ASRT_motor,2023.2.3,143.13974160411303,2024-08-07 17h34.21.306806 +0800,
sequences/sub104_initial_random.csv,1,90,1,3,red,,,,0,0,0,0,0,79,79,79,,,,,,,,,,,,,,,,,,,,,,,,,,,,,128.5979238,,,,,,,,,,,,,128.5924308,128.5979238,128.5979238,128.79941459999998,128.97531200000003,3,1,0.3722201999999015,None,128.97601329999998,128.98261190000005,128.98261190000005,129.18872810000005,129.39776030000007,129.39152150000007,129.39157010000008,129.39776030000007,130.09277700000007,130.0984482,,,,,,,,,,,,,,,,,,,,,,,,,,,,,,,,,,,,,,,,,,,,,,,,,,,,,,,sub104,motor,2,0,2024-08-07_17h33.35.810,ASRT_motor,2023.2.3,143.13974160411303,2024-08-07 17h34.21.306806 +0800,
sequences/sub104_initial_random.csv,2,180,2,2,red,,,,0,0,0,0,0,80,80,80,,,,,,,,,,,,,,,,,,,,,,,,,,,,,130.0984482,,,,,,,,,,,,,130.0934122,130.0984482,130.0984482,130.29915790000007,130.51663640000004,2,1,0.4133821000000353,None,130.51746920000005,130.52341239999998,130.52341239999998,130.72936160000006,130.93810100000007,130.9331383,130.93319630000008,130.93810100000007,131.6345394,131.64093160000004,,,,,,,,,,,,,,,,,,,,,,,,,,,,,,,,,,,,,,,,,,,,,,,,,,,,,,,sub104,motor,2,0,2024-08-07_17h33.35.810,ASRT_motor,2023.2.3,143.13974160411303,2024-08-07 17h34.21.306806 +0800,
sequences/sub104_initial_random.csv,0,0,0,4,red,,,,0,0,0,0,0,81,81,81,,,,,,,,,,,,,,,,,,,,,,,,,,,,,131.64093160000004,,,,,,,,,,,,,131.63540550000005,131.64093160000004,131.64093160000004,131.84119210000006,132.08063990000005,4,1,0.4351107999999613,None,132.08144420000008,132.08883170000001,132.08883170000001,132.29219190000003,132.50091770000006,132.4948081,132.4948531,132.50091770000006,133.1954786,,,,,,,,,,,,,,,,,,,,,,,,,,,,,,,,,,,,,,,,,,,,,,,,,,,,,,,,sub104,motor,2,0,2024-08-07_17h33.35.810,ASRT_motor,2023.2.3,143.13974160411303,2024-08-07 17h34.21.306806 +0800,
sequences/sub104_initial_random.csv,0,0,0,4,red,,,,0,0,0,0,0,82,82,82,,,,,,,,,,,,,,,,,,,,,,,,,,,,,133.20588550000002,,,,,,,,,,,,,133.19638740000005,133.20588550000002,133.20588550000002,133.41055170000004,133.65803930000004,4,1,0.4481352999999899,None,133.65899290000004,133.66780630000005,133.66780630000005,133.86795189999998,134.07712750000007,134.07110910000006,134.0711506,134.07712750000007,134.77151479999998,,,,,,,,,,,,,,,,,,,,,,,,,,,,,,,,,,,,,,,,,,,,,,,,,,,,,,,,sub104,motor,2,0,2024-08-07_17h33.35.810,ASRT_motor,2023.2.3,143.13974160411303,2024-08-07 17h34.21.306806 +0800,
sequences/sub104_initial_random.csv,3,270,3,1,red,,,,0,0,0,0,0,83,83,83,,,,,,,,,,,,,,,,,,,,,,,,,,,,,134.7785113,,,,,,,,,,,,,134.77210320000006,134.7785113,134.7785113,134.97955430000002,135.17092430000002,1,1,0.3894147000000885,None,135.17203370000004,135.17924319999997,135.17924319999997,135.38216380000006,135.59127039999998,135.58573450000006,135.5857932,135.59127039999998,136.28610220000007,136.29255080000007,,,,,,,,,,,,,,,,,,,,,,,,,,,,,,,,,,,,,,,,,,,,,,,,,,,,,,,sub104,motor,2,0,2024-08-07_17h33.35.810,ASRT_motor,2023.2.3,143.13974160411303,2024-08-07 17h34.21.306806 +0800,
sequences/sub104_initial_random.csv,1,90,1,3,red,,,,0,0,0,0,0,84,84,84,,,,,,,,,,,,,,,,,,,,,,,,,,,,,136.29255080000007,,,,,,,,,,,,,136.2866907,136.29255080000007,136.29255080000007,136.4934422,136.6767962,3,1,0.3801885000000311,None,136.6776506,136.68695810000008,136.68695810000008,136.8892850000001,137.09757390000004,137.0913789,137.09141090000003,137.09757390000004,137.79229550000002,,,,,,,,,,,,,,,,,,,,,,,,,,,,,,,,,,,,,,,,,,,,,,,,,,,,,,,,sub104,motor,2,0,2024-08-07_17h33.35.810,ASRT_motor,2023.2.3,143.13974160411303,2024-08-07 17h34.21.306806 +0800,
,,,,,,,,,,,,,,,,,,,,,,,,,,,,,,,,,,,,,,,,,,,,,,,,,,,,,,,,,,,,,,,,,,,,,,,,,,,,,137.79257540000003,137.8675217,137.8675217,159.08234630000004,space,21.210591099999988,None,159.0830512,159.0890544,159.0890544,159.0890544,172.6388472,space,13.546173500000009,None,,,,,,,,,,,,,,,,,,,,,,,,,,,,,,,,,,,,,,,,sub104,motor,2,0,2024-08-07_17h33.35.810,ASRT_motor,2023.2.3,143.13974160411303,2024-08-07 17h34.21.306806 +0800,
,1,90,2,2,red,sequences/sub104_practice_sequence_00.csv,,,,,,,,,,,0,0,0,0,0,0,0,19,,,,,,,,,,,,,,,,,,,,,173.68911460000004,,,,,,,,,,172.66227330000004,172.66547609999998,173.6440130000001,173.6849386,173.68911460000004,173.68911460000004,173.89400999999998,174.33415250000007,2,1,0.64244199999996,None,174.3355464,174.34485949999998,174.34485949999998,174.5466126,174.7548515000001,174.74930940000002,174.74935160000007,174.7548515000001,175.4500848,,,,,,,,,,,,,,,,,,,,,,,,,,,,,,,,,,,,,,,,,,,,,,,,,,,,,,,,sub104,motor,2,0,2024-08-07_17h33.35.810,ASRT_motor,2023.2.3,143.13974160411303,2024-08-07 17h34.21.306806 +0800,
,1,90,2,2,red,sequences/sub104_practice_sequence_00.csv,,,,,,,,,,,0,0,0,0,0,1,1,79,,,,,,,,,,,,,,,,,,,,,175.45934480000005,,,,,,,,,,,,,175.45074880000004,175.45934480000005,175.45934480000005,175.66489780000006,176.03902130000006,2,1,0.5747830999999906,None,176.04034120000006,176.0490635,176.0490635,176.24772500000006,176.45616110000003,176.45098760000008,176.45103270000004,176.45616110000003,177.15191630000004,177.15713540000002,,,,,,,,,,,,,,,,,,,,,,,,,,,,,,,,,,,,,,,,,,,,,,,,,,,,,,,sub104,motor,2,0,2024-08-07_17h33.35.810,ASRT_motor,2023.2.3,143.13974160411303,2024-08-07 17h34.21.306806 +0800,
,0,0,1,3,red,sequences/sub104_practice_sequence_00.csv,,,,,,,,,,,0,0,0,0,0,2,2,61,,,,,,,,,,,,,,,,,,,,,177.15713540000002,,,,,,,,,,,,,177.15261070000008,177.15713540000002,177.15713540000002,177.3590557,177.77390950000006,3,1,0.613104700000008,None,177.7749602,177.78280080000002,177.78280080000002,177.98387150000008,178.19248030000006,178.18628680000006,178.18632739999998,178.19248030000006,178.8874955,,,,,,,,,,,,,,,,,,,,,,,,,,,,,,,,,,,,,,,,,,,,,,,,,,,,,,,,sub104,motor,2,0,2024-08-07_17h33.35.810,ASRT_motor,2023.2.3,143.13974160411303,2024-08-07 17h34.21.306806 +0800,
,3,270,0,4,red,sequences/sub104_practice_sequence_00.csv,,,,,,,,,,,0,0,0,0,0,3,3,29,,,,,,,,,,,,,,,,,,,,,178.89479590000008,,,,,,,,,,,,,178.88814020000007,178.89479590000008,178.89479590000008,179.09544749999998,179.63719980000008,4,1,0.7357240000000047,None,179.63768090000008,179.6435679,179.6435679,179.85238690000006,180.06026180000003,180.05490980000002,180.05496190000008,180.06026180000003,180.75558039999999,180.76110720000008,,,,,,,,,,,,,,,,,,,,,,,,,,,,,,,,,,,,,,,,,,,,,,,,,,,,,,,sub104,motor,2,0,2024-08-07_17h33.35.810,ASRT_motor,2023.2.3,143.13974160411303,2024-08-07 17h34.21.306806 +0800,
,3,270,0,4,red,sequences/sub104_practice_sequence_00.csv,,,,,,,,,,,0,0,0,0,0,4,4,73,,,,,,,,,,,,,,,,,,,,,180.76110720000008,,,,,,,,,,,,,180.75636930000007,180.76110720000008,180.76110720000008,180.96327310000004,181.43068520000008,4,1,0.6621986999999763,None,181.43138580000004,181.4382865,181.4382865,181.64386080000008,181.85421570000005,181.84753740000008,181.8475962,181.85421570000005,182.54774570000006,182.5562516,,,,,,,,,,,,,,,,,,,,,,,,,,,,,,,,,,,,,,,,,,,,,,,,,,,,,,,sub104,motor,2,0,2024-08-07_17h33.35.810,ASRT_motor,2023.2.3,143.13974160411303,2024-08-07 17h34.21.306806 +0800,
,2,180,3,1,red,sequences/sub104_practice_sequence_00.csv,,,,,,,,,,,0,0,0,0,0,5,5,52,,,,,,,,,,,,,,,,,,,,,182.5562516,,,,,,,,,,,,,182.54849769999998,182.5562516,182.5562516,182.76169960000004,183.16057620000004,1,1,0.5963670999999522,None,183.16132920000007,183.16733929999998,183.16733929999998,183.37299660000008,183.58109610000008,183.57543700000008,183.57567160000008,183.58109610000008,184.27602060000004,,,,,,,,,,,,,,,,,,,,,,,,,,,,,,,,,,,,,,,,,,,,,,,,,,,,,,,,sub104,motor,2,0,2024-08-07_17h33.35.810,ASRT_motor,2023.2.3,143.13974160411303,2024-08-07 17h34.21.306806 +0800,
,1,90,2,2,red,sequences/sub104_practice_sequence_00.csv,,,,,,,,,,,0,0,0,0,0,6,6,83,,,,,,,,,,,,,,,,,,,,,184.28384330000006,,,,,,,,,,,,,184.2766785,184.28384330000006,184.28384330000006,184.48381010000003,184.83251470000005,2,1,0.5443894999999657,None,184.83307739999998,184.83852230000002,184.83852230000002,185.0462635,185.2548974,185.2485461,185.24858360000007,185.2548974,185.94955260000006,,,,,,,,,,,,,,,,,,,,,,,,,,,,,,,,,,,,,,,,,,,,,,,,,,,,,,,,sub104,motor,2,0,2024-08-07_17h33.35.810,ASRT_motor,2023.2.3,143.13974160411303,2024-08-07 17h34.21.306806 +0800,
,3,270,0,4,red,sequences/sub104_practice_sequence_00.csv,,,,,,,,,,,0,0,0,0,0,7,7,5,,,,,,,,,,,,,,,,,,,,,185.956775,,,,,,,,,,,,,185.9503644,185.956775,185.956775,186.15737009999998,186.54200720000006,4,1,0.5795469000000821,None,186.54280160000008,186.5489152,186.5489152,186.754638,186.96314710000001,186.95755600000007,186.95760180000002,186.96314710000001,187.65811940000003,187.66389279999999,,,,,,,,,,,,,,,,,,,,,,,,,,,,,,,,,,,,,,,,,,,,,,,,,,,,,,,sub104,motor,2,0,2024-08-07_17h33.35.810,ASRT_motor,2023.2.3,143.13974160411303,2024-08-07 17h34.21.306806 +0800,
,0,0,1,3,red,sequences/sub104_practice_sequence_00.csv,,,,,,,,,,,0,0,0,0,0,8,8,64,,,,,,,,,,,,,,,,,,,,,187.66389279999999,,,,,,,,,,,,,187.65863260000003,187.66389279999999,187.66389279999999,187.86618650000003,188.2085849,3,1,0.5399647000000414,None,188.2092814,188.2188403,188.2188403,188.42144830000007,188.6299371,188.62432850000005,188.62437999999997,188.6299371,189.3247245,189.33073320000005,,,,,,,,,,,,,,,,,,,,,,,,,,,,,,,,,,,,,,,,,,,,,,,,,,,,,,,sub104,motor,2,0,2024-08-07_17h33.35.810,ASRT_motor,2023.2.3,143.13974160411303,2024-08-07 17h34.21.306806 +0800,
,0,0,1,3,red,sequences/sub104_practice_sequence_00.csv,,,,,,,,,,,0,0,0,0,0,9,9,3,,,,,,,,,,,,,,,,,,,,,189.33073320000005,,,,,,,,,,,,,189.32530250000002,189.33073320000005,189.33073320000005,189.5324422,189.86084790000007,3,1,0.5253407000000152,None,189.86156870000002,189.86755070000004,189.86755070000004,190.0744049,190.28216080000004,190.27669190000006,190.27673479999999,190.28216080000004,190.97684160000006,,,,,,,,,,,,,,,,,,,,,,,,,,,,,,,,,,,,,,,,,,,,,,,,,,,,,,,,sub104,motor,2,0,2024-08-07_17h33.35.810,ASRT_motor,2023.2.3,143.13974160411303,2024-08-07 17h34.21.306806 +0800,
,0,0,1,3,red,sequences/sub104_practice_sequence_00.csv,,,,,,,,,,,0,0,0,0,0,10,10,68,,,,,,,,,,,,,,,,,,,,,190.98348529999998,,,,,,,,,,,,,190.97748410000008,190.98348529999998,190.98348529999998,191.18508480000003,191.46565040000007,3,1,0.4790053000000398,None,191.46650010000008,191.47217160000002,191.47217160000002,191.67814570000007,191.88732349999998,191.8813219,191.88136740000004,191.88732349999998,192.58180030000005,192.5880022,,,,,,,,,,,,,,,,,,,,,,,,,,,,,,,,,,,,,,,,,,,,,,,,,,,,,,,sub104,motor,2,0,2024-08-07_17h33.35.810,ASRT_motor,2023.2.3,143.13974160411303,2024-08-07 17h34.21.306806 +0800,
,0,0,1,3,red,sequences/sub104_practice_sequence_00.csv,,,,,,,,,,,0,0,0,0,0,11,11,2,,,,,,,,,,,,,,,,,,,,,192.5880022,,,,,,,,,,,,,192.58203909999997,192.5880022,192.5880022,192.78935669999998,193.0637478,3,1,0.47140699999999924,None,193.06451390000007,193.0724487,193.0724487,193.27590020000002,193.48428220000005,193.47835229999998,193.47839780000004,193.48428220000005,194.17937080000002,194.18625730000008,,,,,,,,,,,,,,,,,,,,,,,,,,,,,,,,,,,,,,,,,,,,,,,,,,,,,,,sub104,motor,2,0,2024-08-07_17h33.35.810,ASRT_motor,2023.2.3,143.13974160411303,2024-08-07 17h34.21.306806 +0800,
,3,270,0,4,red,sequences/sub104_practice_sequence_00.csv,,,,,,,,,,,0,0,0,0,0,12,12,72,,,,,,,,,,,,,,,,,,,,,194.18625730000008,,,,,,,,,,,,,194.1800386,194.18625730000008,194.18625730000008,194.38686810000002,195.07027620000008,4,1,0.8789555999999266,None,195.07101999999998,195.08207290000007,195.08207290000007,195.28193610000005,195.49032280000006,195.484644,195.4846791,195.49032280000006,196.18563430000006,,,,,,,,,,,,,,,,,,,,,,,,,,,,,,,,,,,,,,,,,,,,,,,,,,,,,,,,sub104,motor,2,0,2024-08-07_17h33.35.810,ASRT_motor,2023.2.3,143.13974160411303,2024-08-07 17h34.21.306806 +0800,
,3,270,0,4,red,sequences/sub104_practice_sequence_00.csv,,,,,,,,,,,0,0,0,0,0,13,13,46,,,,,,,,,,,,,,,,,,,,,196.19287250000002,,,,,,,,,,,,,196.18637380000007,196.19287250000002,196.19287250000002,196.39320250000003,196.71631090000005,4,1,0.5204932999999983,None,196.7170112,196.7219649,196.7219649,196.92796140000007,197.13675420000004,197.13080650000006,197.13085769999998,197.13675420000004,197.8310897,,,,,,,,,,,,,,,,,,,,,,,,,,,,,,,,,,,,,,,,,,,,,,,,,,,,,,,,sub104,motor,2,0,2024-08-07_17h33.35.810,ASRT_motor,2023.2.3,143.13974160411303,2024-08-07 17h34.21.306806 +0800,
,3,270,0,4,red,sequences/sub104_practice_sequence_00.csv,,,,,,,,,,,0,0,0,0,0,14,14,54,,,,,,,,,,,,,,,,,,,,,197.8377501,,,,,,,,,,,,,197.8316588,197.8377501,197.8377501,198.03973050000002,198.26403230000005,4,1,0.4219077999999854,None,198.26482020000003,198.27091140000005,198.27091140000005,198.4770648,198.68511250000006,198.67953020000004,198.6795803,198.68511250000006,199.38045350000004,199.3860188,,,,,,,,,,,,,,,,,,,,,,,,,,,,,,,,,,,,,,,,,,,,,,,,,,,,,,,sub104,motor,2,0,2024-08-07_17h33.35.810,ASRT_motor,2023.2.3,143.13974160411303,2024-08-07 17h34.21.306806 +0800,
,3,270,0,4,red,sequences/sub104_practice_sequence_00.csv,,,,,,,,,,,0,0,0,0,0,15,15,51,,,,,,,,,,,,,,,,,,,,,199.3860188,,,,,,,,,,,,,199.38105540000004,199.3860188,199.3860188,199.58826450000004,199.7856637,4,1,0.39442489999999,None,199.78674990000002,199.79990010000006,199.79990010000006,200.00495250000006,200.21306900000002,200.2082021,200.20824779999998,200.21306900000002,200.90913320000004,200.9141535,,,,,,,,,,,,,,,,,,,,,,,,,,,,,,,,,,,,,,,,,,,,,,,,,,,,,,,sub104,motor,2,0,2024-08-07_17h33.35.810,ASRT_motor,2023.2.3,143.13974160411303,2024-08-07 17h34.21.306806 +0800,
,3,270,0,4,red,sequences/sub104_practice_sequence_00.csv,,,,,,,,,,,0,0,0,0,0,16,16,15,,,,,,,,,,,,,,,,,,,,,200.9141535,,,,,,,,,,,,,200.90937370000006,200.9141535,200.9141535,201.11521030000006,201.31302570000003,4,1,0.3926261000000295,None,201.31385090000003,201.3215841,201.3215841,201.5249609,201.73387309999998,201.72806860000003,201.72811050000007,201.73387309999998,202.42889850000006,202.4349856,,,,,,,,,,,,,,,,,,,,,,,,,,,,,,,,,,,,,,,,,,,,,,,,,,,,,,,sub104,motor,2,0,2024-08-07_17h33.35.810,ASRT_motor,2023.2.3,143.13974160411303,2024-08-07 17h34.21.306806 +0800,
,3,270,0,4,red,sequences/sub104_practice_sequence_00.csv,,,,,,,,,,,0,0,0,0,0,17,17,62,,,,,,,,,,,,,,,,,,,,,202.4349856,,,,,,,,,,,,,202.4295436,202.4349856,202.4349856,202.63665990000004,202.77687660000004,4,1,0.33463189999997667,None,202.77745879999998,202.78379830000006,202.78379830000006,202.99077310000007,203.19922540000005,203.1931803,203.1932161000001,203.19922540000005,203.89359539999998,,,,,,,,,,,,,,,,,,,,,,,,,,,,,,,,,,,,,,,,,,,,,,,,,,,,,,,,sub104,motor,2,0,2024-08-07_17h33.35.810,ASRT_motor,2023.2.3,143.13974160411303,2024-08-07 17h34.21.306806 +0800,
,0,0,1,3,red,sequences/sub104_practice_sequence_00.csv,,,,,,,,,,,0,0,0,0,0,18,18,47,,,,,,,,,,,,,,,,,,,,,203.90106780000008,,,,,,,,,,,,,203.89419500000008,203.90106780000008,203.90106780000008,204.10143219999998,204.3822053,3,1,0.4772255000000314,None,204.38287480000008,204.38987510000004,204.38987510000004,204.5946189,204.8026006,204.7976685,204.79772060000005,204.8026006,205.49857010000005,205.50491499999998,,,,,,,,,,,,,,,,,,,,,,,,,,,,,,,,,,,,,,,,,,,,,,,,,,,,,,,sub104,motor,2,0,2024-08-07_17h33.35.810,ASRT_motor,2023.2.3,143.13974160411303,2024-08-07 17h34.21.306806 +0800,
,0,0,1,3,red,sequences/sub104_practice_sequence_00.csv,,,,,,,,,,,0,0,0,0,0,19,19,63,,,,,,,,,,,,,,,,,,,,,205.50491499999998,,,,,,,,,,,,,205.49926690000007,205.50491499999998,205.50491499999998,205.70586190000006,205.95891410000002,3,1,0.4515534000000798,None,205.9597235,205.9668643,205.9668643,206.17112740000005,206.3791331,206.37350980000008,206.3735517,206.3791331,207.0742467,,,,,,,,,,,,,,,,,,,,,,,,,,,,,,,,,,,,,,,,,,,,,,,,,,,,,,,,sub104,motor,2,0,2024-08-07_17h33.35.810,ASRT_motor,2023.2.3,143.13974160411303,2024-08-07 17h34.21.306806 +0800,
,1,90,2,2,red,sequences/sub104_practice_sequence_00.csv,,,,,,,,,,,0,0,0,0,0,20,20,76,,,,,,,,,,,,,,,,,,,,,207.08275530000003,,,,,,,,,,,,,207.07523780000008,207.08275530000003,207.08275530000003,207.28276230000006,207.64500250000003,2,1,0.5575455999999122,None,207.64583040000002,207.65107790000002,207.65107790000002,207.85884640000006,208.06681560000004,208.0612046,208.06125630000008,208.06681560000004,208.7618119,208.76885430000004,,,,,,,,,,,,,,,,,,,,,,,,,,,,,,,,,,,,,,,,,,,,,,,,,,,,,,,sub104,motor,2,0,2024-08-07_17h33.35.810,ASRT_motor,2023.2.3,143.13974160411303,2024-08-07 17h34.21.306806 +0800,
,3,270,0,4,red,sequences/sub104_practice_sequence_00.csv,,,,,,,,,,,0,0,0,0,0,21,21,44,,,,,,,,,,,,,,,,,,,,,208.76885430000004,,,,,,,,,,,,,208.7624095,208.76885430000004,208.76885430000004,208.9695736,209.34026089999998,4,1,0.5686506000000691,None,209.34095180000008,209.34673759999998,209.34673759999998,209.55255080000006,209.7617695,209.75556519999998,209.75560740000003,209.7617695,210.4557989,,,,,,,,,,,,,,,,,,,,,,,,,,,,,,,,,,,,,,,,,,,,,,,,,,,,,,,,sub104,motor,2,0,2024-08-07_17h33.35.810,ASRT_motor,2023.2.3,143.13974160411303,2024-08-07 17h34.21.306806 +0800,
,3,270,0,4,red,sequences/sub104_practice_sequence_00.csv,,,,,,,,,,,0,0,0,0,0,22,22,30,,,,,,,,,,,,,,,,,,,,,210.46474410000008,,,,,,,,,,,,,210.4566003,210.46474410000008,210.46474410000008,210.6639083,210.98595150000006,4,1,0.5171220000000858,None,210.98680050000007,210.99411440000006,210.99411440000006,211.1985396,211.40670240000009,211.40195670000003,211.40200730000004,211.40670240000009,212.10257990000002,212.11160140000004,,,,,,,,,,,,,,,,,,,,,,,,,,,,,,,,,,,,,,,,,,,,,,,,,,,,,,,sub104,motor,2,0,2024-08-07_17h33.35.810,ASRT_motor,2023.2.3,143.13974160411303,2024-08-07 17h34.21.306806 +0800,
,0,0,1,3,red,sequences/sub104_practice_sequence_00.csv,,,,,,,,,,,0,0,0,0,0,23,23,17,,,,,,,,,,,,,,,,,,,,,212.11160140000004,,,,,,,,,,,,,212.1034227,212.11160140000004,212.11160140000004,212.31704220000006,212.61079790000008,3,1,0.49124380000000656,None,212.61137860000008,212.6165075,212.6165075,212.82362290000003,213.0317407,213.02646490000006,213.02651680000008,213.0317407,213.72694180000008,,,,,,,,,,,,,,,,,,,,,,,,,,,,,,,,,,,,,,,,,,,,,,,,,,,,,,,,sub104,motor,2,0,2024-08-07_17h33.35.810,ASRT_motor,2023.2.3,143.13974160411303,2024-08-07 17h34.21.306806 +0800,
,3,270,0,4,red,sequences/sub104_practice_sequence_00.csv,,,,,,,,,,,0,0,0,0,0,24,24,56,,,,,,,,,,,,,,,,,,,,,213.73402399999998,,,,,,,,,,,,,213.72764370000004,213.73402399999998,213.73402399999998,213.93467450000003,214.30534580000005,4,1,0.5653300999999828,None,214.30616540000005,214.31745880000005,214.31745880000005,214.51770929999998,214.72635350000007,214.72122260000003,214.7212799,214.72635350000007,215.42143310000006,215.42744390000007,,,,,,,,,,,,,,,,,,,,,,,,,,,,,,,,,,,,,,,,,,,,,,,,,,,,,,,sub104,motor,2,0,2024-08-07_17h33.35.810,ASRT_motor,2023.2.3,143.13974160411303,2024-08-07 17h34.21.306806 +0800,
,2,180,3,1,red,sequences/sub104_practice_sequence_00.csv,,,,,,,,,,,0,0,0,0,0,25,25,33,,,,,,,,,,,,,,,,,,,,,215.42744390000007,,,,,,,,,,,,,215.42205280000007,215.42744390000007,215.42744390000007,215.62930600000004,216.0269998,1,1,0.5929317000000083,None,216.0278899,216.03644870000005,216.03644870000005,216.24032810000006,216.4482104,216.44278110000005,216.44283730000006,216.4482104,217.14338110000006,,,,,,,,,,,,,,,,,,,,,,,,,,,,,,,,,,,,,,,,,,,,,,,,,,,,,,,,sub104,motor,2,0,2024-08-07_17h33.35.810,ASRT_motor,2023.2.3,143.13974160411303,2024-08-07 17h34.21.306806 +0800,
,3,270,0,4,red,sequences/sub104_practice_sequence_00.csv,,,,,,,,,,,0,0,0,0,0,26,26,60,,,,,,,,,,,,,,,,,,,,,217.15217000000007,,,,,,,,,,,,,217.1442373,217.15217000000007,217.15217000000007,217.35849640000004,217.64627140000005,4,1,0.49136379999993096,None,217.64696479999998,217.65389349999998,217.65389349999998,217.85833100000002,218.06605450000006,218.06101580000006,218.06106060000002,218.06605450000006,218.7615429,,,,,,,,,,,,,,,,,,,,,,,,,,,,,,,,,,,,,,,,,,,,,,,,,,,,,,,,sub104,motor,2,0,2024-08-07_17h33.35.810,ASRT_motor,2023.2.3,143.13974160411303,2024-08-07 17h34.21.306806 +0800,
,3,270,0,4,red,sequences/sub104_practice_sequence_00.csv,,,,,,,,,,,0,0,0,0,0,27,27,50,,,,,,,,,,,,,,,,,,,,,218.7716464,,,,,,,,,,,,,218.76244940000004,218.7716464,218.7716464,218.9771025,219.23735280000005,4,1,0.45624579999991965,None,219.2379952,219.24286590000008,219.24286590000008,219.44837030000008,219.6566421,219.6516021,219.65165260000003,219.6566421,220.35197230000006,,,,,,,,,,,,,,,,,,,,,,,,,,,,,,,,,,,,,,,,,,,,,,,,,,,,,,,,sub104,motor,2,0,2024-08-07_17h33.35.810,ASRT_motor,2023.2.3,143.13974160411303,2024-08-07 17h34.21.306806 +0800,
,2,180,3,1,red,sequences/sub104_practice_sequence_00.csv,,,,,,,,,,,0,0,0,0,0,28,28,34,,,,,,,,,,,,,,,,,,,,,220.35910090000004,,,,,,,,,,,,,220.3527547,220.35910090000004,220.35910090000004,220.55978630000004,220.91591700000004,1,1,0.5499741999999515,None,220.9166464,220.92326690000004,220.92326690000004,221.12905490000003,221.3369553,221.3314934,221.33158100000003,221.3369553,222.03192090000005,,,,,,,,,,,,,,,,,,,,,,,,,,,,,,,,,,,,,,,,,,,,,,,,,,,,,,,,sub104,motor,2,0,2024-08-07_17h33.35.810,ASRT_motor,2023.2.3,143.13974160411303,2024-08-07 17h34.21.306806 +0800,
,3,270,0,4,red,sequences/sub104_practice_sequence_00.csv,,,,,,,,,,,0,0,0,0,0,29,29,67,,,,,,,,,,,,,,,,,,,,,222.03896410000004,,,,,,,,,,,,,222.03245400000003,222.03896410000004,222.03896410000004,222.23980540000002,222.4727117,4,1,0.42952149999996436,None,222.47349229999998,222.48222900000007,222.48222900000007,222.68465020000008,222.89289600000006,222.88709419999998,222.88714100000004,222.89289600000006,223.58782180000003,,,,,,,,,,,,,,,,,,,,,,,,,,,,,,,,,,,,,,,,,,,,,,,,,,,,,,,,sub104,motor,2,0,2024-08-07_17h33.35.810,ASRT_motor,2023.2.3,143.13974160411303,2024-08-07 17h34.21.306806 +0800,
,2,180,3,1,red,sequences/sub104_practice_sequence_00.csv,,,,,,,,,,,0,0,0,0,0,30,30,38,,,,,,,,,,,,,,,,,,,,,223.59428560000003,,,,,,,,,,,,,223.5886627,223.59428560000003,223.59428560000003,223.79552410000008,224.08937920000005,1,1,0.4905096999999614,None,224.09015750000003,224.09588359999998,224.09588359999998,224.30230740000002,224.51083060000008,224.50445550000006,224.50449650000007,224.51083060000008,225.2054501,,,,,,,,,,,,,,,,,,,,,,,,,,,,,,,,,,,,,,,,,,,,,,,,,,,,,,,,sub104,motor,2,0,2024-08-07_17h33.35.810,ASRT_motor,2023.2.3,143.13974160411303,2024-08-07 17h34.21.306806 +0800,
,2,180,3,1,red,sequences/sub104_practice_sequence_00.csv,,,,,,,,,,,0,0,0,0,0,31,31,40,,,,,,,,,,,,,,,,,,,,,225.21315420000008,,,,,,,,,,,,,225.2061936,225.21315420000008,225.21315420000008,225.41360170000007,225.66032630000007,1,1,0.4415781000000152,None,225.66117659999998,225.66866149999998,225.66866149999998,225.87234180000007,226.08087090000004,226.0742017,226.07425369999999,226.08087090000004,226.77518380000004,,,,,,,,,,,,,,,,,,,,,,,,,,,,,,,,,,,,,,,,,,,,,,,,,,,,,,,,sub104,motor,2,0,2024-08-07_17h33.35.810,ASRT_motor,2023.2.3,143.13974160411303,2024-08-07 17h34.21.306806 +0800,
,0,0,1,3,red,sequences/sub104_practice_sequence_00.csv,,,,,,,,,,,0,0,0,0,0,32,32,11,,,,,,,,,,,,,,,,,,,,,226.7849248,,,,,,,,,,,,,226.77585870000007,226.7849248,226.7849248,226.98989519999998,227.38239040000008,3,1,0.5947333000000299,None,227.38317310000002,227.39072350000004,227.39072350000004,227.5939588,227.80252240000004,227.79676210000002,227.79681600000004,227.80252240000004,228.49756560000003,,,,,,,,,,,,,,,,,,,,,,,,,,,,,,,,,,,,,,,,,,,,,,,,,,,,,,,,sub104,motor,2,0,2024-08-07_17h33.35.810,ASRT_motor,2023.2.3,143.13974160411303,2024-08-07 17h34.21.306806 +0800,
,3,270,0,4,red,sequences/sub104_practice_sequence_00.csv,,,,,,,,,,,0,0,0,0,0,33,33,53,,,,,,,,,,,,,,,,,,,,,228.50580109999999,,,,,,,,,,,,,228.4985527,228.50580109999999,228.50580109999999,228.70501950000005,229.00652150000008,4,1,0.4979503999999224,None,229.00729250000006,229.01551389999997,229.01551389999997,229.21897710000007,229.42695950000007,229.42109449999998,229.42112970000005,229.42695950000007,230.12237690000006,,,,,,,,,,,,,,,,,,,,,,,,,,,,,,,,,,,,,,,,,,,,,,,,,,,,,,,,sub104,motor,2,0,2024-08-07_17h33.35.810,ASRT_motor,2023.2.3,143.13974160411303,2024-08-07 17h34.21.306806 +0800,
,3,270,0,4,red,sequences/sub104_practice_sequence_00.csv,,,,,,,,,,,0,0,0,0,0,34,34,36,,,,,,,,,,,,,,,,,,,,,230.13082440000005,,,,,,,,,,,,,230.1230776,230.13082440000005,230.13082440000005,230.330013,230.6110506,4,1,0.4723301999999876,None,230.6119476,230.62006680000002,230.62006680000002,230.82283460000008,231.03128290000006,231.02609610000002,231.02614060000008,231.03128290000006,231.7263041,,,,,,,,,,,,,,,,,,,,,,,,,,,,,,,,,,,,,,,,,,,,,,,,,,,,,,,,sub104,motor,2,0,2024-08-07_17h33.35.810,ASRT_motor,2023.2.3,143.13974160411303,2024-08-07 17h34.21.306806 +0800,
,0,0,1,3,red,sequences/sub104_practice_sequence_00.csv,,,,,,,,,,,0,0,0,0,0,35,35,4,,,,,,,,,,,,,,,,,,,,,231.73417990000007,,,,,,,,,,,,,231.72722880000003,231.73417990000007,231.73417990000007,231.93487549999998,232.20002240000008,3,1,0.46160229999998137,None,232.2006172,232.2065288,232.2065288,232.4132191,232.62173000000007,232.61605810000003,232.61610380000002,232.62173000000007,233.31650920000004,,,,,,,,,,,,,,,,,,,,,,,,,,,,,,,,,,,,,,,,,,,,,,,,,,,,,,,,sub104,motor,2,0,2024-08-07_17h33.35.810,ASRT_motor,2023.2.3,143.13974160411303,2024-08-07 17h34.21.306806 +0800,
,1,90,2,2,red,sequences/sub104_practice_sequence_00.csv,,,,,,,,,,,0,0,0,0,0,36,36,59,,,,,,,,,,,,,,,,,,,,,233.3236356,,,,,,,,,,,,,233.317274,233.3236356,233.3236356,233.5250271,234.07568070000002,4,0,0.7443244999999479,None,234.07648100000006,234.0865943,234.0865943,234.2888997,234.4964847,234.49024370000006,234.49028110000006,234.4964847,235.19091850000007,,,,,,,,,,,,,,,,,,,,,,,,,,,,,,,,,,,,,,,,,,,,,,,,,,,,,,,,sub104,motor,2,0,2024-08-07_17h33.35.810,ASRT_motor,2023.2.3,143.13974160411303,2024-08-07 17h34.21.306806 +0800,
,3,270,0,4,red,sequences/sub104_practice_sequence_00.csv,,,,,,,,,,,0,0,0,0,0,37,37,1,,,,,,,,,,,,,,,,,,,,,235.19777750000003,,,,,,,,,,,,,235.1914908,235.19777750000003,235.19777750000003,235.3999232,235.72352999999998,4,1,0.5160673000000315,None,235.72430570000006,235.73651160000009,235.73651160000009,235.93404280000004,236.1437955,236.13736319999998,236.13741400000004,236.1437955,236.8382739,236.84437890000004,,,,,,,,,,,,,,,,,,,,,,,,,,,,,,,,,,,,,,,,,,,,,,,,,,,,,,,sub104,motor,2,0,2024-08-07_17h33.35.810,ASRT_motor,2023.2.3,143.13974160411303,2024-08-07 17h34.21.306806 +0800,
,0,0,1,3,red,sequences/sub104_practice_sequence_00.csv,,,,,,,,,,,0,0,0,0,0,38,38,26,,,,,,,,,,,,,,,,,,,,,236.84437890000004,,,,,,,,,,,,,236.83890600000007,236.84437890000004,236.84437890000004,237.04513370000006,237.5623306,3,1,0.715347999999949,None,237.56321780000007,237.56888990000004,237.56888990000004,237.77409420000004,237.98296190000008,237.9776508,237.97770750000007,237.98296190000008,238.67799050000008,,,,,,,,,,,,,,,,,,,,,,,,,,,,,,,,,,,,,,,,,,,,,,,,,,,,,,,,sub104,motor,2,0,2024-08-07_17h33.35.810,ASRT_motor,2023.2.3,143.13974160411303,2024-08-07 17h34.21.306806 +0800,
,1,90,2,2,red,sequences/sub104_practice_sequence_00.csv,,,,,,,,,,,0,0,0,0,0,39,39,48,,,,,,,,,,,,,,,,,,,,,238.68384330000004,,,,,,,,,,,,,238.6786247,238.68384330000004,238.68384330000004,238.88549690000002,239.13022180000007,2,1,0.4433822999999393,None,239.1309043,239.13976860000002,239.13976860000002,239.34355070000004,239.55324900000005,239.54717340000002,239.54723130000002,239.55324900000005,240.247343,,,,,,,,,,,,,,,,,,,,,,,,,,,,,,,,,,,,,,,,,,,,,,,,,,,,,,,,sub104,motor,2,0,2024-08-07_17h33.35.810,ASRT_motor,2023.2.3,143.13974160411303,2024-08-07 17h34.21.306806 +0800,
,2,180,3,1,red,sequences/sub104_practice_sequence_00.csv,,,,,,,,,,,0,0,0,0,0,40,40,82,,,,,,,,,,,,,,,,,,,,,240.25527880000004,,,,,,,,,,,,,240.24814420000007,240.25527880000004,240.25527880000004,240.4549273,240.7903361,1,1,0.5316031999999495,None,240.79111239999997,240.7965382,240.7965382,241.0031133,241.21209280000005,241.2058691000001,241.2059071,241.21209280000005,241.90637860000004,,,,,,,,,,,,,,,,,,,,,,,,,,,,,,,,,,,,,,,,,,,,,,,,,,,,,,,,sub104,motor,2,0,2024-08-07_17h33.35.810,ASRT_motor,2023.2.3,143.13974160411303,2024-08-07 17h34.21.306806 +0800,
,3,270,0,4,red,sequences/sub104_practice_sequence_00.csv,,,,,,,,,,,0,0,0,0,0,41,41,25,,,,,,,,,,,,,,,,,,,,,241.91287499999999,,,,,,,,,,,,,241.9070451,241.91287499999999,241.91287499999999,242.11519810000004,242.36997540000004,4,1,0.4512790999999652,None,242.37098709999998,242.38007990000006,242.38007990000006,242.5797351,242.78810629999998,242.78251810000006,242.7825593,242.78810629999998,243.4827308,,,,,,,,,,,,,,,,,,,,,,,,,,,,,,,,,,,,,,,,,,,,,,,,,,,,,,,,sub104,motor,2,0,2024-08-07_17h33.35.810,ASRT_motor,2023.2.3,143.13974160411303,2024-08-07 17h34.21.306806 +0800,
,1,90,2,2,red,sequences/sub104_practice_sequence_00.csv,,,,,,,,,,,0,0,0,0,0,42,42,7,,,,,,,,,,,,,,,,,,,,,243.49090310000008,,,,,,,,,,,,,243.48335150000003,243.49090310000008,243.49090310000008,243.69089630000008,244.08338850000007,2,1,0.5893085000000156,None,244.0840227,244.09188390000008,244.09188390000008,244.29533790000005,244.50318490000006,244.49782270000003,244.49786040000004,244.50318490000006,245.1979897,,,,,,,,,,,,,,,,,,,,,,,,,,,,,,,,,,,,,,,,,,,,,,,,,,,,,,,,sub104,motor,2,0,2024-08-07_17h33.35.810,ASRT_motor,2023.2.3,143.13974160411303,2024-08-07 17h34.21.306806 +0800,
,0,0,1,3,red,sequences/sub104_practice_sequence_00.csv,,,,,,,,,,,0,0,0,0,0,43,43,32,,,,,,,,,,,,,,,,,,,,,245.20499760000007,,,,,,,,,,,,,245.19857130000003,245.20499760000007,245.20499760000007,245.40612199999998,245.7634611000001,3,1,0.5509581000000026,None,245.7640616,245.76970590000008,245.76970590000008,245.9754749,246.18383670000003,246.17799880000007,246.1780334,246.18383670000003,246.87867140000003,,,,,,,,,,,,,,,,,,,,,,,,,,,,,,,,,,,,,,,,,,,,,,,,,,,,,,,,sub104,motor,2,0,2024-08-07_17h33.35.810,ASRT_motor,2023.2.3,143.13974160411303,2024-08-07 17h34.21.306806 +0800,
,1,90,2,2,red,sequences/sub104_practice_sequence_00.csv,,,,,,,,,,,0,0,0,0,0,44,44,75,,,,,,,,,,,,,,,,,,,,,246.88527840000006,,,,,,,,,,,,,246.87926750000008,246.88527840000006,246.88527840000006,247.0866085,247.41630830000008,2,1,0.5284136000000217,None,247.41707080000003,247.4246865,247.4246865,247.62802250000004,247.83650520000003,247.83087410000007,247.83091869999998,247.83650520000003,248.5314489,,,,,,,,,,,,,,,,,,,,,,,,,,,,,,,,,,,,,,,,,,,,,,,,,,,,,,,,sub104,motor,2,0,2024-08-07_17h33.35.810,ASRT_motor,2023.2.3,143.13974160411303,2024-08-07 17h34.21.306806 +0800,
,0,0,1,3,red,sequences/sub104_practice_sequence_00.csv,,,,,,,,,,,0,0,0,0,0,45,45,0,,,,,,,,,,,,,,,,,,,,,248.53767219999997,,,,,,,,,,,,,248.5319862,248.53767219999997,248.53767219999997,248.73950330000002,249.2484068,3,1,0.7039398000000574,None,249.24900750000006,249.25500480000005,249.25500480000005,249.4612383,249.6696018,249.66401840000003,249.66405630000008,249.6696018,250.36447570000007,,,,,,,,,,,,,,,,,,,,,,,,,,,,,,,,,,,,,,,,,,,,,,,,,,,,,,,,sub104,motor,2,0,2024-08-07_17h33.35.810,ASRT_motor,2023.2.3,143.13974160411303,2024-08-07 17h34.21.306806 +0800,
,3,270,0,4,red,sequences/sub104_practice_sequence_00.csv,,,,,,,,,,,0,0,0,0,0,46,46,43,,,,,,,,,,,,,,,,,,,,,250.3713679,,,,,,,,,,,,,250.36515040000006,250.3713679,250.3713679,250.5723223,250.90176710000003,4,1,0.527514999999994,None,250.90234880000003,250.908774,250.908774,251.11430870000004,251.32236239999997,251.31665140000007,251.3166867,251.32236239999997,252.0170571,,,,,,,,,,,,,,,,,,,,,,,,,,,,,,,,,,,,,,,,,,,,,,,,,,,,,,,,sub104,motor,2,0,2024-08-07_17h33.35.810,ASRT_motor,2023.2.3,143.13974160411303,2024-08-07 17h34.21.306806 +0800,
,0,0,1,3,red,sequences/sub104_practice_sequence_00.csv,,,,,,,,,,,0,0,0,0,0,47,47,77,,,,,,,,,,,,,,,,,,,,,252.02351099999998,,,,,,,,,,,,,252.01763849999998,252.02351099999998,252.02351099999998,252.22547770000006,252.50481980000006,3,1,0.47630070000002434,None,252.50535810000008,252.5100434000001,252.5100434000001,252.7182755,252.92661610000005,252.92077310000002,252.92081960000007,252.92661610000005,253.62155740000003,,,,,,,,,,,,,,,,,,,,,,,,,,,,,,,,,,,,,,,,,,,,,,,,,,,,,,,,sub104,motor,2,0,2024-08-07_17h33.35.810,ASRT_motor,2023.2.3,143.13974160411303,2024-08-07 17h34.21.306806 +0800,
,1,90,2,2,red,sequences/sub104_practice_sequence_00.csv,,,,,,,,,,,0,0,0,0,0,48,48,12,,,,,,,,,,,,,,,,,,,,,253.62900060000004,,,,,,,,,,,,,253.62240440000005,253.62900060000004,253.62900060000004,253.8292037,254.0605144,2,1,0.42706429999998363,None,254.06151710000006,254.0670533,254.0670533,254.27423570000008,254.48215790000006,254.47582010000008,254.4758551,254.48215790000006,255.17669840000008,,,,,,,,,,,,,,,,,,,,,,,,,,,,,,,,,,,,,,,,,,,,,,,,,,,,,,,,sub104,motor,2,0,2024-08-07_17h33.35.810,ASRT_motor,2023.2.3,143.13974160411303,2024-08-07 17h34.21.306806 +0800,
,3,270,0,4,red,sequences/sub104_practice_sequence_00.csv,,,,,,,,,,,0,0,0,0,0,49,49,6,,,,,,,,,,,,,,,,,,,,,255.1833663,,,,,,,,,,,,,255.177283,255.1833663,255.1833663,255.3854073,255.72165890000008,4,1,0.5355097999999998,None,255.72235610000007,255.72817470000007,255.72817470000007,255.93351940000002,256.14221800000007,256.1362867,256.13637460000007,256.14221800000007,256.83681250000006,,,,,,,,,,,,,,,,,,,,,,,,,,,,,,,,,,,,,,,,,,,,,,,,,,,,,,,,sub104,motor,2,0,2024-08-07_17h33.35.810,ASRT_motor,2023.2.3,143.13974160411303,2024-08-07 17h34.21.306806 +0800,
,2,180,3,1,red,sequences/sub104_practice_sequence_00.csv,,,,,,,,,,,0,0,0,0,0,50,50,49,,,,,,,,,,,,,,,,,,,,,256.84334980000006,,,,,,,,,,,,,256.83769930000005,256.84334980000006,256.84334980000006,257.04470460000005,257.4566347,1,1,0.606844199999955,None,257.4573444,257.4640363,257.4640363,257.6697928,257.8779334000001,257.8719530000001,257.8719854000001,257.8779334000001,258.5728382,,,,,,,,,,,,,,,,,,,,,,,,,,,,,,,,,,,,,,,,,,,,,,,,,,,,,,,,sub104,motor,2,0,2024-08-07_17h33.35.810,ASRT_motor,2023.2.3,143.13974160411303,2024-08-07 17h34.21.306806 +0800,
,0,0,1,3,red,sequences/sub104_practice_sequence_00.csv,,,,,,,,,,,0,0,0,0,0,51,51,10,,,,,,,,,,,,,,,,,,,,,258.5812827,,,,,,,,,,,,,258.5735724,258.5812827,258.5812827,258.78105200000005,259.1453086,3,1,0.561219200000096,None,259.14597660000004,259.1550347,259.1550347,259.3570089,259.5655107,259.5590251,259.5590819,259.5655107,260.26086670000007,,,,,,,,,,,,,,,,,,,,,,,,,,,,,,,,,,,,,,,,,,,,,,,,,,,,,,,,sub104,motor,2,0,2024-08-07_17h33.35.810,ASRT_motor,2023.2.3,143.13974160411303,2024-08-07 17h34.21.306806 +0800,
,0,0,1,3,red,sequences/sub104_practice_sequence_00.csv,,,,,,,,,,,0,0,0,0,0,52,52,45,,,,,,,,,,,,,,,,,,,,,260.2668578,,,,,,,,,,,,,260.2614062,260.2668578,260.2668578,260.4682735,260.77707540000006,3,1,0.5070545999999467,None,260.77773820000004,260.78334860000007,260.78334860000007,260.98879750000003,261.1975272000001,261.1915523,261.1915931,261.1975272000001,261.89234080000006,,,,,,,,,,,,,,,,,,,,,,,,,,,,,,,,,,,,,,,,,,,,,,,,,,,,,,,,sub104,motor,2,0,2024-08-07_17h33.35.810,ASRT_motor,2023.2.3,143.13974160411303,2024-08-07 17h34.21.306806 +0800,
,3,270,0,4,red,sequences/sub104_practice_sequence_00.csv,,,,,,,,,,,0,0,0,0,0,53,53,66,,,,,,,,,,,,,,,,,,,,,261.8989024,,,,,,,,,,,,,261.8928717,261.8989024,261.8989024,262.10056440000005,262.44278970000005,4,1,0.5389308999999685,None,262.4435145,262.4500684000001,262.4500684000001,262.6554939,262.86370210000007,262.85855490000006,262.8586001,262.86370210000007,263.5597692,263.56558470000004,,,,,,,,,,,,,,,,,,,,,,,,,,,,,,,,,,,,,,,,,,,,,,,,,,,,,,,sub104,motor,2,0,2024-08-07_17h33.35.810,ASRT_motor,2023.2.3,143.13974160411303,2024-08-07 17h34.21.306806 +0800,
,1,90,2,2,red,sequences/sub104_practice_sequence_00.csv,,,,,,,,,,,0,0,0,0,0,54,54,39,,,,,,,,,,,,,,,,,,,,,263.56558470000004,,,,,,,,,,,,,263.56063460000007,263.56558470000004,263.56558470000004,263.76657780000005,264.05299620000005,2,1,0.4818586999999752,None,264.0536452,264.0584973,264.0584973,264.26691100000005,264.4750835,264.46873660000006,264.46877130000007,264.4750835,265.16989520000004,,,,,,,,,,,,,,,,,,,,,,,,,,,,,,,,,,,,,,,,,,,,,,,,,,,,,,,,sub104,motor,2,0,2024-08-07_17h33.35.810,ASRT_motor,2023.2.3,143.13974160411303,2024-08-07 17h34.21.306806 +0800,
,0,0,1,3,red,sequences/sub104_practice_sequence_00.csv,,,,,,,,,,,0,0,0,0,0,55,55,81,,,,,,,,,,,,,,,,,,,,,265.17790450000007,,,,,,,,,,,,,265.170839,265.17790450000007,265.17790450000007,265.3775813,265.7072022,3,1,0.5246235000000752,None,265.7080046,265.7141839000001,265.7141839000001,265.9194695,266.128013,266.12218440000004,266.1222213,266.128013,266.82256830000006,,,,,,,,,,,,,,,,,,,,,,,,,,,,,,,,,,,,,,,,,,,,,,,,,,,,,,,,sub104,motor,2,0,2024-08-07_17h33.35.810,ASRT_motor,2023.2.3,143.13974160411303,2024-08-07 17h34.21.306806 +0800,
,2,180,3,1,red,sequences/sub104_practice_sequence_00.csv,,,,,,,,,,,0,0,0,0,0,56,56,8,,,,,,,,,,,,,,,,,,,,,266.8301209,,,,,,,,,,,,,266.82340150000005,266.8301209,266.8301209,267.030837,267.42950570000005,1,1,0.594784900000036,None,267.4301782,267.43814410000005,267.43814410000005,267.6416378,267.85008530000005,267.84391600000004,267.8439551,267.85008530000005,268.5444814,,,,,,,,,,,,,,,,,,,,,,,,,,,,,,,,,,,,,,,,,,,,,,,,,,,,,,,,sub104,motor,2,0,2024-08-07_17h33.35.810,ASRT_motor,2023.2.3,143.13974160411303,2024-08-07 17h34.21.306806 +0800,
,2,180,3,1,red,sequences/sub104_practice_sequence_00.csv,,,,,,,,,,,0,0,0,0,0,57,57,74,,,,,,,,,,,,,,,,,,,,,268.55112180000003,,,,,,,,,,,,,268.5452326000001,268.55112180000003,268.55112180000003,268.75286000000006,269.00483180000003,3,0,0.44915070000001833,None,269.0055654,269.0130126,269.0130126,269.2184373,269.42697740000006,269.4204846,269.4205223,269.42697740000006,270.12092630000006,,,,,,,,,,,,,,,,,,,,,,,,,,,,,,,,,,,,,,,,,,,,,,,,,,,,,,,,sub104,motor,2,0,2024-08-07_17h33.35.810,ASRT_motor,2023.2.3,143.13974160411303,2024-08-07 17h34.21.306806 +0800,
,0,0,1,3,red,sequences/sub104_practice_sequence_00.csv,,,,,,,,,,,0,0,0,0,0,58,58,84,,,,,,,,,,,,,,,,,,,,,270.1276838,,,,,,,,,,,,,270.1215839,270.1276838,270.1276838,270.32912220000003,270.7135041,3,1,0.5776057000000492,None,270.71421840000005,270.7204275,270.7204275,270.92627330000005,271.13468290000003,271.12879510000005,271.1288415,271.13468290000003,271.8297858000001,,,,,,,,,,,,,,,,,,,,,,,,,,,,,,,,,,,,,,,,,,,,,,,,,,,,,,,,sub104,motor,2,0,2024-08-07_17h33.35.810,ASRT_motor,2023.2.3,143.13974160411303,2024-08-07 17h34.21.306806 +0800,
,2,180,3,1,red,sequences/sub104_practice_sequence_00.csv,,,,,,,,,,,0,0,0,0,0,59,59,31,,,,,,,,,,,,,,,,,,,,,271.8365132,,,,,,,,,,,,,271.8304474,271.8365132,271.8365132,272.0371669,272.470454,1,1,0.6295441999999412,None,272.4710896,272.4775892,272.4775892,272.6836009,272.8918529,272.886041,272.8860763,272.8918529,273.58622090000006,,,,,,,,,,,,,,,,,,,,,,,,,,,,,,,,,,,,,,,,,,,,,,,,,,,,,,,,sub104,motor,2,0,2024-08-07_17h33.35.810,ASRT_motor,2023.2.3,143.13974160411303,2024-08-07 17h34.21.306806 +0800,
,3,270,0,4,red,sequences/sub104_practice_sequence_00.csv,,,,,,,,,,,0,0,0,0,0,60,60,9,,,,,,,,,,,,,,,,,,,,,273.59329920000005,,,,,,,,,,,,,273.5867567,273.59329920000005,273.59329920000005,273.79423870000005,274.1581807,4,1,0.5595207000000073,None,274.15889070000003,274.1650469,274.1650469,274.37048930000003,274.5789386,274.5734093,274.5734996,274.5789386,275.2737958,,,,,,,,,,,,,,,,,,,,,,,,,,,,,,,,,,,,,,,,,,,,,,,,,,,,,,,,sub104,motor,2,0,2024-08-07_17h33.35.810,ASRT_motor,2023.2.3,143.13974160411303,2024-08-07 17h34.21.306806 +0800,
,1,90,2,2,red,sequences/sub104_practice_sequence_00.csv,,,,,,,,,,,0,0,0,0,0,61,61,69,,,,,,,,,,,,,,,,,,,,,275.2825984,,,,,,,,,,,,,275.27444230000003,275.2825984,275.2825984,275.4818025000001,276.0326772000001,2,1,0.7442148999999745,None,276.03335260000006,276.0390482,276.0390482,276.2454748,276.45417470000007,276.4482127,276.44825750000007,276.45417470000007,277.148814,,,,,,,,,,,,,,,,,,,,,,,,,,,,,,,,,,,,,,,,,,,,,,,,,,,,,,,,sub104,motor,2,0,2024-08-07_17h33.35.810,ASRT_motor,2023.2.3,143.13974160411303,2024-08-07 17h34.21.306806 +0800,
,3,270,0,4,red,sequences/sub104_practice_sequence_00.csv,,,,,,,,,,,0,0,0,0,0,62,62,28,,,,,,,,,,,,,,,,,,,,,277.1590983,,,,,,,,,,,,,277.1496294,277.1590983,277.1590983,277.3639779,278.14911660000007,None,0,,,278.14971130000004,278.16326920000006,278.16326920000006,278.3635588000001,278.5717426,278.5659425,278.56597980000004,278.5717426,279.2671624000001,,,,,,,,,,,,,,,,,,,,,,,,,,,,,,,,,,,,,,,,,,,,,,,,,,,,,,,,sub104,motor,2,0,2024-08-07_17h33.35.810,ASRT_motor,2023.2.3,143.13974160411303,2024-08-07 17h34.21.306806 +0800,
,2,180,3,1,red,sequences/sub104_practice_sequence_00.csv,,,,,,,,,,,0,0,0,0,0,63,63,70,,,,,,,,,,,,,,,,,,,,,279.27428340000006,,,,,,,,,,,,,279.2680786000001,279.27428340000006,279.27428340000006,279.47488380000004,279.8654822,1,1,0.5847337000000152,None,279.8661598,279.87426060000007,279.87426060000007,280.0786985000001,280.2871152,280.2812083,280.2812493,280.2871152,280.98214270000005,,,,,,,,,,,,,,,,,,,,,,,,,,,,,,,,,,,,,,,,,,,,,,,,,,,,,,,,sub104,motor,2,0,2024-08-07_17h33.35.810,ASRT_motor,2023.2.3,143.13974160411303,2024-08-07 17h34.21.306806 +0800,
,2,180,3,1,red,sequences/sub104_practice_sequence_00.csv,,,,,,,,,,,0,0,0,0,0,64,64,65,,,,,,,,,,,,,,,,,,,,,280.98857140000007,,,,,,,,,,,,,280.98283820000006,280.98857140000007,280.98857140000007,281.19239160000006,281.49061370000004,1,1,0.4952016999999387,None,281.4912406000001,281.49947470000006,281.49947470000006,281.7040132000001,281.91216140000006,281.9057557,281.90578800000003,281.91216140000006,282.6068401,,,,,,,,,,,,,,,,,,,,,,,,,,,,,,,,,,,,,,,,,,,,,,,,,,,,,,,,sub104,motor,2,0,2024-08-07_17h33.35.810,ASRT_motor,2023.2.3,143.13974160411303,2024-08-07 17h34.21.306806 +0800,
,1,90,2,2,red,sequences/sub104_practice_sequence_00.csv,,,,,,,,,,,0,0,0,0,0,65,65,78,,,,,,,,,,,,,,,,,,,,,282.6132951000001,,,,,,,,,,,,,282.6074629000001,282.6132951000001,282.6132951000001,282.8149890000001,283.2476892000001,2,1,0.6285808000000088,None,283.24832420000007,283.2539292,283.2539292,283.46082250000006,283.6690179000001,283.6629534,283.6629868,283.6690179000001,284.36392150000006,,,,,,,,,,,,,,,,,,,,,,,,,,,,,,,,,,,,,,,,,,,,,,,,,,,,,,,,sub104,motor,2,0,2024-08-07_17h33.35.810,ASRT_motor,2023.2.3,143.13974160411303,2024-08-07 17h34.21.306806 +0800,
,0,0,1,3,red,sequences/sub104_practice_sequence_00.csv,,,,,,,,,,,0,0,0,0,0,66,66,20,,,,,,,,,,,,,,,,,,,,,284.37073970000006,,,,,,,,,,,,,284.3645104000001,284.37073970000006,284.37073970000006,284.57212620000007,284.8792844000001,3,1,0.5012105999999221,None,284.8799182,284.88577940000005,284.88577940000005,285.0924254,285.3011794,285.29497130000004,285.29500870000004,285.3011794,285.996029,,,,,,,,,,,,,,,,,,,,,,,,,,,,,,,,,,,,,,,,,,,,,,,,,,,,,,,,sub104,motor,2,0,2024-08-07_17h33.35.810,ASRT_motor,2023.2.3,143.13974160411303,2024-08-07 17h34.21.306806 +0800,
,0,0,1,3,red,sequences/sub104_practice_sequence_00.csv,,,,,,,,,,,0,0,0,0,0,67,67,41,,,,,,,,,,,,,,,,,,,,,286.0046811000001,,,,,,,,,,,,,285.9966724000001,286.0046811000001,286.0046811000001,286.2109795,286.53962720000004,3,1,0.5291438000000426,None,286.54032960000006,286.54598340000007,286.54598340000007,286.75298470000007,286.9604455,286.9542086,286.9542424,286.9604455,287.6551832,,,,,,,,,,,,,,,,,,,,,,,,,,,,,,,,,,,,,,,,,,,,,,,,,,,,,,,,sub104,motor,2,0,2024-08-07_17h33.35.810,ASRT_motor,2023.2.3,143.13974160411303,2024-08-07 17h34.21.306806 +0800,
,2,180,3,1,red,sequences/sub104_practice_sequence_00.csv,,,,,,,,,,,0,0,0,0,0,68,68,35,,,,,,,,,,,,,,,,,,,,,287.6617033,,,,,,,,,,,,,287.65565690000005,287.6617033,287.6617033,287.8636252,288.19846400000006,1,1,0.5322777000000087,None,288.19900540000003,288.2054915,288.2054915,288.4121157000001,288.6205685,288.61423460000003,288.6142695,288.6205685,289.31524580000007,,,,,,,,,,,,,,,,,,,,,,,,,,,,,,,,,,,,,,,,,,,,,,,,,,,,,,,,sub104,motor,2,0,2024-08-07_17h33.35.810,ASRT_motor,2023.2.3,143.13974160411303,2024-08-07 17h34.21.306806 +0800,
,1,90,2,2,red,sequences/sub104_practice_sequence_00.csv,,,,,,,,,,,0,0,0,0,0,69,69,27,,,,,,,,,,,,,,,,,,,,,289.32150790000003,,,,,,,,,,,,,289.3159425,289.32150790000003,289.32150790000003,289.52294500000005,289.9000753,2,1,0.5712833000000046,None,289.90088460000004,289.9092944,289.9092944,290.1133907000001,290.3215938000001,290.31614190000005,290.3161851,290.3215938000001,291.0168499,,,,,,,,,,,,,,,,,,,,,,,,,,,,,,,,,,,,,,,,,,,,,,,,,,,,,,,,sub104,motor,2,0,2024-08-07_17h33.35.810,ASRT_motor,2023.2.3,143.13974160411303,2024-08-07 17h34.21.306806 +0800,
,0,0,1,3,red,sequences/sub104_practice_sequence_00.csv,,,,,,,,,,,0,0,0,0,0,70,70,55,,,,,,,,,,,,,,,,,,,,,291.0237098,,,,,,,,,,,,,291.0175669,291.0237098,291.0237098,291.224614,291.51153410000006,3,1,0.47954200000003766,None,291.5121508000001,291.5185646,291.5185646,291.7242662,291.9333196,291.927584,291.9276444000001,291.9333196,292.6283075,292.6352998,,,,,,,,,,,,,,,,,,,,,,,,,,,,,,,,,,,,,,,,,,,,,,,,,,,,,,,sub104,motor,2,0,2024-08-07_17h33.35.810,ASRT_motor,2023.2.3,143.13974160411303,2024-08-07 17h34.21.306806 +0800,
,2,180,3,1,red,sequences/sub104_practice_sequence_00.csv,,,,,,,,,,,0,0,0,0,0,71,71,58,,,,,,,,,,,,,,,,,,,,,292.6352998,,,,,,,,,,,,,292.62886960000003,292.6352998,292.6352998,292.83559590000004,293.1084870000001,1,1,0.46842789999993784,None,293.1091357,293.114682,293.114682,293.3219283000001,293.52989230000003,293.5245651,293.5246068,293.52989230000003,294.2253218000001,294.23221720000004,,,,,,,,,,,,,,,,,,,,,,,,,,,,,,,,,,,,,,,,,,,,,,,,,,,,,,,sub104,motor,2,0,2024-08-07_17h33.35.810,ASRT_motor,2023.2.3,143.13974160411303,2024-08-07 17h34.21.306806 +0800,
,3,270,0,4,red,sequences/sub104_practice_sequence_00.csv,,,,,,,,,,,0,0,0,0,0,72,72,24,,,,,,,,,,,,,,,,,,,,,294.23221720000004,,,,,,,,,,,,,294.22620670000003,294.23221720000004,294.23221720000004,294.43276620000006,294.75477390000003,4,1,0.518436999999949,None,294.7555549,294.7617956,294.7617956,294.9673225,295.1756695,295.170172,295.1702172,295.1756695,295.8707340000001,,,,,,,,,,,,,,,,,,,,,,,,,,,,,,,,,,,,,,,,,,,,,,,,,,,,,,,,sub104,motor,2,0,2024-08-07_17h33.35.810,ASRT_motor,2023.2.3,143.13974160411303,2024-08-07 17h34.21.306806 +0800,
,3,270,0,4,red,sequences/sub104_practice_sequence_00.csv,,,,,,,,,,,0,0,0,0,0,73,73,16,,,,,,,,,,,,,,,,,,,,,295.8768099,,,,,,,,,,,,,295.871393,295.8768099,295.8768099,296.07862710000006,296.4010085,4,1,0.5214786000000231,None,296.40171580000003,296.409583,296.409583,296.6131501,296.82145520000006,296.81581700000004,296.8158578,296.82145520000006,297.51652020000006,297.5226501000001,,,,,,,,,,,,,,,,,,,,,,,,,,,,,,,,,,,,,,,,,,,,,,,,,,,,,,,sub104,motor,2,0,2024-08-07_17h33.35.810,ASRT_motor,2023.2.3,143.13974160411303,2024-08-07 17h34.21.306806 +0800,
,0,0,1,3,red,sequences/sub104_practice_sequence_00.csv,,,,,,,,,,,0,0,0,0,0,74,74,80,,,,,,,,,,,,,,,,,,,,,297.5226501000001,,,,,,,,,,,,,297.51701460000004,297.5226501000001,297.5226501000001,297.7246466,297.99021930000004,3,1,0.463283400000023,None,297.9908022000001,297.9956612000001,297.9956612000001,298.20337660000007,298.41187550000006,298.4059016,298.4059427000001,298.41187550000006,299.10655810000003,,,,,,,,,,,,,,,,,,,,,,,,,,,,,,,,,,,,,,,,,,,,,,,,,,,,,,,,sub104,motor,2,0,2024-08-07_17h33.35.810,ASRT_motor,2023.2.3,143.13974160411303,2024-08-07 17h34.21.306806 +0800,
,1,90,2,2,red,sequences/sub104_practice_sequence_00.csv,,,,,,,,,,,0,0,0,0,0,75,75,21,,,,,,,,,,,,,,,,,,,,,299.11376700000005,,,,,,,,,,,,,299.1071850000001,299.11376700000005,299.11376700000005,299.3145985,299.5733553,2,1,0.4551738000000114,None,299.5741259,299.58172,299.58172,299.7865223,299.99484760000007,299.98906180000006,299.9890988000001,299.99484760000007,300.68962640000007,,,,,,,,,,,,,,,,,,,,,,,,,,,,,,,,,,,,,,,,,,,,,,,,,,,,,,,,sub104,motor,2,0,2024-08-07_17h33.35.810,ASRT_motor,2023.2.3,143.13974160411303,2024-08-07 17h34.21.306806 +0800,
,2,180,3,1,red,sequences/sub104_practice_sequence_00.csv,,,,,,,,,,,0,0,0,0,0,76,76,23,,,,,,,,,,,,,,,,,,,,,300.6968277000001,,,,,,,,,,,,,300.6901983,300.6968277000001,300.6968277000001,300.8980543,301.1855763,1,1,0.4858765999999832,None,301.186283,301.1944556000001,301.1944556000001,301.39777190000007,301.60610940000004,301.6006923,301.60073650000004,301.60610940000004,302.30117200000007,,,,,,,,,,,,,,,,,,,,,,,,,,,,,,,,,,,,,,,,,,,,,,,,,,,,,,,,sub104,motor,2,0,2024-08-07_17h33.35.810,ASRT_motor,2023.2.3,143.13974160411303,2024-08-07 17h34.21.306806 +0800,
,3,270,0,4,red,sequences/sub104_practice_sequence_00.csv,,,,,,,,,,,0,0,0,0,0,77,77,18,,,,,,,,,,,,,,,,,,,,,302.31033890000003,,,,,,,,,,,,,302.30193110000005,302.31033890000003,302.31033890000003,302.51581980000003,302.7546132,4,1,0.4394657999999936,None,302.75534690000006,302.7634386000001,302.7634386000001,302.9670348000001,303.1755178000001,303.16967610000006,303.1697174000001,303.1755178000001,303.8701634,,,,,,,,,,,,,,,,,,,,,,,,,,,,,,,,,,,,,,,,,,,,,,,,,,,,,,,,sub104,motor,2,0,2024-08-07_17h33.35.810,ASRT_motor,2023.2.3,143.13974160411303,2024-08-07 17h34.21.306806 +0800,
,3,270,0,4,red,sequences/sub104_practice_sequence_00.csv,,,,,,,,,,,0,0,0,0,0,78,78,13,,,,,,,,,,,,,,,,,,,,,303.8774443,,,,,,,,,,,,,303.8708811,303.8774443,303.8774443,304.0781191,304.3436371,4,1,0.4596665999999914,None,304.34416280000005,304.3497608,304.3497608,304.5571737,304.76574370000003,304.76043500000003,304.7604759000001,304.76574370000003,305.46110680000004,305.46802850000006,,,,,,,,,,,,,,,,,,,,,,,,,,,,,,,,,,,,,,,,,,,,,,,,,,,,,,,sub104,motor,2,0,2024-08-07_17h33.35.810,ASRT_motor,2023.2.3,143.13974160411303,2024-08-07 17h34.21.306806 +0800,
,0,0,1,3,red,sequences/sub104_practice_sequence_00.csv,,,,,,,,,,,0,0,0,0,0,79,79,22,,,,,,,,,,,,,,,,,,,,,305.46802850000006,,,,,,,,,,,,,305.4615956,305.46802850000006,305.46802850000006,305.6691797000001,305.89963380000006,3,1,0.42416820000005373,None,305.90029620000007,305.9086827,305.9086827,306.1130286,306.32142380000005,306.3154367000001,306.3154687,306.32142380000005,307.0160836,,,,,,,,,,,,,,,,,,,,,,,,,,,,,,,,,,,,,,,,,,,,,,,,,,,,,,,,sub104,motor,2,0,2024-08-07_17h33.35.810,ASRT_motor,2023.2.3,143.13974160411303,2024-08-07 17h34.21.306806 +0800,
,1,90,2,2,red,sequences/sub104_practice_sequence_00.csv,,,,,,,,,,,0,0,0,0,0,80,80,57,,,,,,,,,,,,,,,,,,,,,307.02245920000007,,,,,,,,,,,,,307.0165998,307.02245920000007,307.02245920000007,307.2246279000001,307.46222450000005,2,1,0.43493899999998575,None,307.4627998000001,307.46946030000004,307.46946030000004,307.6757516,307.88349030000006,307.87737230000005,307.8774028,307.88349030000006,308.5785959,,,,,,,,,,,,,,,,,,,,,,,,,,,,,,,,,,,,,,,,,,,,,,,,,,,,,,,,sub104,motor,2,0,2024-08-07_17h33.35.810,ASRT_motor,2023.2.3,143.13974160411303,2024-08-07 17h34.21.306806 +0800,
,2,180,3,1,red,sequences/sub104_practice_sequence_00.csv,,,,,,,,,,,0,0,0,0,0,81,81,37,,,,,,,,,,,,,,,,,,,,,308.58488740000007,,,,,,,,,,,,,308.5791237000001,308.58488740000007,308.58488740000007,308.78663030000007,309.0112240000001,1,1,0.4230264000000261,None,309.0117584000001,309.01633230000004,309.01633230000004,309.22404170000004,309.43233570000007,309.42651250000006,309.42654860000005,309.43233570000007,310.12679920000005,,,,,,,,,,,,,,,,,,,,,,,,,,,,,,,,,,,,,,,,,,,,,,,,,,,,,,,,sub104,motor,2,0,2024-08-07_17h33.35.810,ASRT_motor,2023.2.3,143.13974160411303,2024-08-07 17h34.21.306806 +0800,
,3,270,0,4,red,sequences/sub104_practice_sequence_00.csv,,,,,,,,,,,0,0,0,0,0,82,82,42,,,,,,,,,,,,,,,,,,,,,310.13362100000006,,,,,,,,,,,,,310.12751490000005,310.13362100000006,310.13362100000006,310.3351433,310.53267900000003,4,1,0.3967299000000821,None,310.5333001,310.5387982,310.5387982,310.7449278,310.95308480000006,310.9471419,310.94717460000004,310.95308480000006,311.6477414000001,,,,,,,,,,,,,,,,,,,,,,,,,,,,,,,,,,,,,,,,,,,,,,,,,,,,,,,,sub104,motor,2,0,2024-08-07_17h33.35.810,ASRT_motor,2023.2.3,143.13974160411303,2024-08-07 17h34.21.306806 +0800,
