initial_random_seq_files,orientation_index,orientation_degrees,correct_answer_index,correct_answer_direction,arrow_color,practice_seq_files,learning_seq_files,motor_testing_seq_files,init_random_block.thisRepN,init_random_block.thisTrialN,init_random_block.thisN,init_random_block.thisIndex,init_random_trials.thisRepN,init_random_trials.thisTrialN,init_random_trials.thisN,init_random_trials.thisIndex,practice_blocks.thisRepN,practice_blocks.thisTrialN,practice_blocks.thisN,practice_blocks.thisIndex,practice_trials.thisRepN,practice_trials.thisTrialN,practice_trials.thisN,practice_trials.thisIndex,learning_trials.thisRepN,learning_trials.thisTrialN,learning_trials.thisN,learning_trials.thisIndex,learning_loop.thisRepN,learning_loop.thisTrialN,learning_loop.thisN,learning_loop.thisIndex,trials.thisRepN,trials.thisTrialN,trials.thisN,trials.thisIndex,motor_testing_trials.thisRepN,motor_testing_trials.thisTrialN,motor_testing_trials.thisN,motor_testing_trials.thisIndex,motor_testing_loop.thisRepN,motor_testing_loop.thisTrialN,motor_testing_loop.thisN,motor_testing_loop.thisIndex,thisRow.t,notes,welcomescreen.started,spaceship.started,welcometext.started,welcome_end.started,welcomescreen.stopped,welcome_end.keys,welcome_end.rt,welcome_end.duration,pre_section.started,fixation_init.started,pre_section.stopped,trial.started,arrowhead.started,key_resp.started,arrowhead.stopped,trial.stopped,key_resp.keys,key_resp.corr,key_resp.rt,key_resp.duration,fixation_feedback.started,cross.started,feedback_text.started,cross.stopped,feedback_text.stopped,fixation_feedback.stopped,RSI.started,text_2.started,RSI.stopped,text_2.stopped,post_section.started,feedback_post_section.started,key_resp_4.started,post_section.stopped,key_resp_4.keys,key_resp_4.rt,key_resp_4.duration,pratice_instruction.started,spaceship_rotated.started,rotation_instruction.started,key_resp_2.started,pratice_instruction.stopped,key_resp_2.keys,key_resp_2.rt,key_resp_2.duration,fixation_init.stopped,learning_instruction.started,spaceship_rotated01.started,rotation_instruction01.started,key_resp_02.started,learning_instruction.stopped,key_resp_02.keys,key_resp_02.rt,key_resp_02.duration,seqreport_instruction.started,seqreport_instruction_text.started,seqreport_instruction_key.started,seqreport_instruction.stopped,seqreport_instruction_key.keys,seqreport_instruction_key.rt,seqreport_instruction_key.duration,seqreport.started,seq_report_key.started,seqreport.stopped,seq_report_key.keys,seq_report_key.rt,seq_report_key.duration,seqarrow.started,arrow_report.started,seqarrow.stopped,arrow_report.stopped,key_resp.stopped,motor_testing_instruction.started,spaceship3.started,motor_testing_instruction_text.started,key_resp_3.started,motor_testing_instruction.stopped,key_resp_3.keys,key_resp_3.rt,key_resp_3.duration,fixation.started,cross_2.started,cross_2.stopped,fixation.stopped,thankyouscreen.started,text.started,key_resp_6.started,thankyouscreen.stopped,key_resp_6.keys,key_resp_6.rt,key_resp_6.duration,participant,learning_type,seqID,debug,date,expName,psychopyVersion,frameRate,expStart,
,,,,,,,,,,,,,,,,,,,,,,,,,,,,,,,,,,,,,,,,,,,,,,,0.005286200001137331,0.016832799999974668,0.016832799999974668,0.016832799999974668,18.82708830000047,space,18.802348600002006,None,,,,,,,,,,,,,,,,,,,,,,,,,,,,,,,,,,,,,,,,,,,,,,,,,,,,,,,,,,,,,,,,,,,,,,,,,,,,,,,,,,,,sub105,motor,2,0,2024-08-08_10h03.07.220,ASRT_motor,2023.2.3,142.91512556168342,2024-08-08 10h03.47.724943 +0800,
sequences/sub105_initial_random.csv,2,180,2,2,red,,,,0,0,0,0,0,0,0,0,,,,,,,,,,,,,,,,,,,,,,,,,,,,,19.87280969999847,,,,,,,,,,18.84703559999616,18.851016000000527,19.83238849999907,19.867115499997453,19.87280969999847,19.87280969999847,20.07581930000015,20.57861060000141,2,1,0.6997782000034931,None,20.579790600000706,20.590665600000648,20.590665600000648,20.791139299995848,20.998985400001402,20.993047500000102,20.993086599999515,20.998985400001402,21.693866299996444,,,,,,,,,,,,,,,,,,,,,,,,,,,,,,,,,,,,,,,,,,,,,,,,,,,,,,,,,,,,,,,sub105,motor,2,0,2024-08-08_10h03.07.220,ASRT_motor,2023.2.3,142.91512556168342,2024-08-08 10h03.47.724943 +0800,
sequences/sub105_initial_random.csv,3,270,3,1,red,,,,0,0,0,0,0,1,1,1,,,,,,,,,,,,,,,,,,,,,,,,,,,,,21.70039259999612,,,,,,,,,,,,,21.69444310000108,21.70039259999612,21.70039259999612,21.901817899997695,22.16923769999994,1,1,0.4651171000004979,None,22.170209600000817,22.176275899997563,22.176275899997563,22.380984700001136,22.589386200001172,22.58361899999727,22.58365639999829,22.589386200001172,23.28378789999988,,,,,,,,,,,,,,,,,,,,,,,,,,,,,,,,,,,,,,,,,,,,,,,,,,,,,,,,,,,,,,,sub105,motor,2,0,2024-08-08_10h03.07.220,ASRT_motor,2023.2.3,142.91512556168342,2024-08-08 10h03.47.724943 +0800,
sequences/sub105_initial_random.csv,0,0,0,4,red,,,,0,0,0,0,0,2,2,2,,,,,,,,,,,,,,,,,,,,,,,,,,,,,23.29048299999704,,,,,,,,,,,,,23.28434329999436,23.29048299999704,23.29048299999704,23.492333899994264,23.70291189999989,4,1,0.4103386999995564,None,23.703400599995803,23.707884199997352,23.707884199997352,23.915397400000074,24.12424249999458,24.118200500000967,24.118243099997926,24.12424249999458,24.81897879999451,,,,,,,,,,,,,,,,,,,,,,,,,,,,,,,,,,,,,,,,,,,,,,,,,,,,,,,,,,,,,,,sub105,motor,2,0,2024-08-08_10h03.07.220,ASRT_motor,2023.2.3,142.91512556168342,2024-08-08 10h03.47.724943 +0800,
sequences/sub105_initial_random.csv,0,0,0,4,red,,,,0,0,0,0,0,3,3,3,,,,,,,,,,,,,,,,,,,,,,,,,,,,,24.825481200001377,,,,,,,,,,,,,24.819661800000176,24.825481200001377,24.825481200001377,25.02721169999859,25.382831199996872,4,1,0.551593000003777,None,25.383429699999397,25.388701299998502,25.388701299998502,25.595927599999413,25.804495399999723,25.799024399995687,25.799069699998654,25.804495399999723,26.499958100001095,,,,,,,,,,,,,,,,,,,,,,,,,,,,,,,,,,,,,,,,,,,,,,,,,,,,,,,,,,,,,,,sub105,motor,2,0,2024-08-08_10h03.07.220,ASRT_motor,2023.2.3,142.91512556168342,2024-08-08 10h03.47.724943 +0800,
sequences/sub105_initial_random.csv,3,270,3,1,red,,,,0,0,0,0,0,4,4,4,,,,,,,,,,,,,,,,,,,,,,,,,,,,,26.50608139999531,,,,,,,,,,,,,26.50060219999432,26.50608139999531,26.50608139999531,26.707363699999405,26.827290499997616,1,1,0.31600459999754094,None,26.827893599998788,26.833089499996277,26.833089499996277,27.040436399998725,27.248956700001145,27.24344790000032,27.24349689999508,27.248956700001145,27.94414539999707,27.950186299996858,,,,,,,,,,,,,,,,,,,,,,,,,,,,,,,,,,,,,,,,,,,,,,,,,,,,,,,,,,,,,,sub105,motor,2,0,2024-08-08_10h03.07.220,ASRT_motor,2023.2.3,142.91512556168342,2024-08-08 10h03.47.724943 +0800,
sequences/sub105_initial_random.csv,1,90,1,3,red,,,,0,0,0,0,0,5,5,5,,,,,,,,,,,,,,,,,,,,,,,,,,,,,27.950186299996858,,,,,,,,,,,,,27.94472219999443,27.950186299996858,27.950186299996858,28.151787399998284,28.30634899999859,3,1,0.3506275000036112,None,28.306964799994603,28.312525199995434,28.312525199995434,28.519800999994914,28.728690799995093,28.72264439999708,28.722690199996578,28.728690799995093,29.423010200000135,,,,,,,,,,,,,,,,,,,,,,,,,,,,,,,,,,,,,,,,,,,,,,,,,,,,,,,,,,,,,,,sub105,motor,2,0,2024-08-08_10h03.07.220,ASRT_motor,2023.2.3,142.91512556168342,2024-08-08 10h03.47.724943 +0800,
sequences/sub105_initial_random.csv,3,270,3,1,red,,,,0,0,0,0,0,6,6,6,,,,,,,,,,,,,,,,,,,,,,,,,,,,,29.42937819999497,,,,,,,,,,,,,29.42357799999445,29.42937819999497,29.42937819999497,29.631194999994477,29.74543309999717,1,1,0.3132823999985703,None,29.74613279999903,29.751954899998964,29.751954899998964,29.95755339999596,30.16537509999762,30.15938610000012,30.15942069999437,30.16537509999762,30.860154299996793,,,,,,,,,,,,,,,,,,,,,,,,,,,,,,,,,,,,,,,,,,,,,,,,,,,,,,,,,,,,,,,sub105,motor,2,0,2024-08-08_10h03.07.220,ASRT_motor,2023.2.3,142.91512556168342,2024-08-08 10h03.47.724943 +0800,
sequences/sub105_initial_random.csv,3,270,3,1,red,,,,0,0,0,0,0,7,7,7,,,,,,,,,,,,,,,,,,,,,,,,,,,,,30.86688609999692,,,,,,,,,,,,,30.86072039999999,30.86688609999692,30.86688609999692,31.068105999998807,31.3152609999961,1,1,0.4453367999958573,None,31.31590679999499,31.321430099997087,31.321430099997087,31.527233499997237,31.735104799998226,31.72892769999453,31.72895989999961,31.735104799998226,32.42949370000133,,,,,,,,,,,,,,,,,,,,,,,,,,,,,,,,,,,,,,,,,,,,,,,,,,,,,,,,,,,,,,,sub105,motor,2,0,2024-08-08_10h03.07.220,ASRT_motor,2023.2.3,142.91512556168342,2024-08-08 10h03.47.724943 +0800,
sequences/sub105_initial_random.csv,2,180,2,2,red,,,,0,0,0,0,0,8,8,8,,,,,,,,,,,,,,,,,,,,,,,,,,,,,32.43635599999834,,,,,,,,,,,,,32.42998559999978,32.43635599999834,32.43635599999834,32.63810129999911,32.938092500000494,2,1,0.4975759000008111,None,32.93872999999439,32.9469775999969,32.9469775999969,33.15204639999865,33.35977859999548,33.354137999995146,33.35417949999828,33.35977859999548,34.0550688000003,,,,,,,,,,,,,,,,,,,,,,,,,,,,,,,,,,,,,,,,,,,,,,,,,,,,,,,,,,,,,,,sub105,motor,2,0,2024-08-08_10h03.07.220,ASRT_motor,2023.2.3,142.91512556168342,2024-08-08 10h03.47.724943 +0800,
sequences/sub105_initial_random.csv,3,270,3,1,red,,,,0,0,0,0,0,9,9,9,,,,,,,,,,,,,,,,,,,,,,,,,,,,,34.06130259999918,,,,,,,,,,,,,34.055668199995125,34.06130259999918,34.06130259999918,34.26280739999493,34.410306699996,4,0,0.3452919999981532,None,34.41086289999657,34.42196639999747,34.42196639999747,34.62397580000106,34.83170550000068,34.82580410000082,34.82583069999964,34.83170550000068,35.526992399994924,,,,,,,,,,,,,,,,,,,,,,,,,,,,,,,,,,,,,,,,,,,,,,,,,,,,,,,,,,,,,,,sub105,motor,2,0,2024-08-08_10h03.07.220,ASRT_motor,2023.2.3,142.91512556168342,2024-08-08 10h03.47.724943 +0800,
sequences/sub105_initial_random.csv,1,90,1,3,red,,,,0,0,0,0,0,10,10,10,,,,,,,,,,,,,,,,,,,,,,,,,,,,,35.533419200000935,,,,,,,,,,,,,35.52770679999958,35.533419200000935,35.533419200000935,35.73486520000006,35.9951310999968,3,1,0.45905450000282144,None,35.99572349999653,36.00240810000105,36.00240810000105,36.206848900001205,36.41508619999513,36.4098113,36.40984549999848,36.41508619999513,37.11047580000013,,,,,,,,,,,,,,,,,,,,,,,,,,,,,,,,,,,,,,,,,,,,,,,,,,,,,,,,,,,,,,,sub105,motor,2,0,2024-08-08_10h03.07.220,ASRT_motor,2023.2.3,142.91512556168342,2024-08-08 10h03.47.724943 +0800,
sequences/sub105_initial_random.csv,0,0,0,4,red,,,,0,0,0,0,0,11,11,11,,,,,,,,,,,,,,,,,,,,,,,,,,,,,37.11820539999462,,,,,,,,,,,,,37.11118309999438,37.11820539999462,37.11820539999462,37.31833249999909,37.453177999996115,1,0,0.33030250000592787,None,37.45394859999942,37.46845770000073,37.46845770000073,37.665475299996615,37.87370009999722,37.86679960000038,37.866816499998095,37.87370009999722,38.56872740000108,,,,,,,,,,,,,,,,,,,,,,,,,,,,,,,,,,,,,,,,,,,,,,,,,,,,,,,,,,,,,,,sub105,motor,2,0,2024-08-08_10h03.07.220,ASRT_motor,2023.2.3,142.91512556168342,2024-08-08 10h03.47.724943 +0800,
sequences/sub105_initial_random.csv,1,90,1,3,red,,,,0,0,0,0,0,12,12,12,,,,,,,,,,,,,,,,,,,,,,,,,,,,,38.57623700000113,,,,,,,,,,,,,38.56936670000141,38.57623700000113,38.57623700000113,38.776860199999646,39.01505699999689,3,1,0.43307610000192653,None,39.015835099999094,39.02380589999666,39.02380589999666,39.228376399994886,39.436060899999575,39.42927000000054,39.42928949999623,39.436060899999575,40.130798599995614,,,,,,,,,,,,,,,,,,,,,,,,,,,,,,,,,,,,,,,,,,,,,,,,,,,,,,,,,,,,,,,sub105,motor,2,0,2024-08-08_10h03.07.220,ASRT_motor,2023.2.3,142.91512556168342,2024-08-08 10h03.47.724943 +0800,
sequences/sub105_initial_random.csv,3,270,3,1,red,,,,0,0,0,0,0,13,13,13,,,,,,,,,,,,,,,,,,,,,,,,,,,,,40.13740809999581,,,,,,,,,,,,,40.13135589999729,40.13740809999581,40.13740809999581,40.339230799996585,40.605767399996694,1,1,0.46431290000327863,None,40.60662269999739,40.61358929999551,40.61358929999551,40.818238899999415,41.026313099995605,41.02107999999862,41.021125200000824,41.026313099995605,41.72136550000141,,,,,,,,,,,,,,,,,,,,,,,,,,,,,,,,,,,,,,,,,,,,,,,,,,,,,,,,,,,,,,,sub105,motor,2,0,2024-08-08_10h03.07.220,ASRT_motor,2023.2.3,142.91512556168342,2024-08-08 10h03.47.724943 +0800,
sequences/sub105_initial_random.csv,2,180,2,2,red,,,,0,0,0,0,0,14,14,14,,,,,,,,,,,,,,,,,,,,,,,,,,,,,41.72782339999685,,,,,,,,,,,,,41.72222399999737,41.72782339999685,41.72782339999685,41.92901210000127,42.174847299997055,2,1,0.44103260000701994,None,42.17562159999943,42.184855299994524,42.184855299994524,42.387642299996514,42.5956756999949,42.589849299998605,42.58988999999565,42.5956756999949,43.29086979999556,,,,,,,,,,,,,,,,,,,,,,,,,,,,,,,,,,,,,,,,,,,,,,,,,,,,,,,,,,,,,,,sub105,motor,2,0,2024-08-08_10h03.07.220,ASRT_motor,2023.2.3,142.91512556168342,2024-08-08 10h03.47.724943 +0800,
sequences/sub105_initial_random.csv,2,180,2,2,red,,,,0,0,0,0,0,15,15,15,,,,,,,,,,,,,,,,,,,,,,,,,,,,,43.29759809999814,,,,,,,,,,,,,43.29161749999912,43.29759809999814,43.29759809999814,43.49909330000082,43.82788299999811,2,1,0.5269117999996524,None,43.82861209999828,43.83449899999687,43.83449899999687,44.040311899996595,44.25133149999601,44.24479839999549,44.24486429999524,44.25133149999601,44.95008589999634,,,,,,,,,,,,,,,,,,,,,,,,,,,,,,,,,,,,,,,,,,,,,,,,,,,,,,,,,,,,,,,sub105,motor,2,0,2024-08-08_10h03.07.220,ASRT_motor,2023.2.3,142.91512556168342,2024-08-08 10h03.47.724943 +0800,
sequences/sub105_initial_random.csv,1,90,1,3,red,,,,0,0,0,0,0,16,16,16,,,,,,,,,,,,,,,,,,,,,,,,,,,,,44.95728919999965,,,,,,,,,,,,,44.950731500000984,44.95728919999965,44.95728919999965,45.15935570000147,45.397460199994384,3,1,0.4370296999986749,None,45.39838099999906,45.40523440000106,45.40523440000106,45.61013939999975,45.818017300000065,45.812682299998414,45.81273230000079,45.818017300000065,46.51298049999605,,,,,,,,,,,,,,,,,,,,,,,,,,,,,,,,,,,,,,,,,,,,,,,,,,,,,,,,,,,,,,,sub105,motor,2,0,2024-08-08_10h03.07.220,ASRT_motor,2023.2.3,142.91512556168342,2024-08-08 10h03.47.724943 +0800,
sequences/sub105_initial_random.csv,1,90,1,3,red,,,,0,0,0,0,0,17,17,17,,,,,,,,,,,,,,,,,,,,,,,,,,,,,46.52035839999735,,,,,,,,,,,,,46.513675199996214,46.52035839999735,46.52035839999735,46.720733800000744,47.00078260000009,3,1,0.4765371999965282,None,47.00148899999476,47.00751350000064,47.00751350000064,47.21374780000042,47.42232520000107,47.416574599999876,47.4166194999998,47.42232520000107,48.11725079999451,,,,,,,,,,,,,,,,,,,,,,,,,,,,,,,,,,,,,,,,,,,,,,,,,,,,,,,,,,,,,,,sub105,motor,2,0,2024-08-08_10h03.07.220,ASRT_motor,2023.2.3,142.91512556168342,2024-08-08 10h03.47.724943 +0800,
sequences/sub105_initial_random.csv,0,0,0,4,red,,,,0,0,0,0,0,18,18,18,,,,,,,,,,,,,,,,,,,,,,,,,,,,,48.124635299995134,,,,,,,,,,,,,48.11837530000048,48.124635299995134,48.124635299995134,48.325616599999194,48.48103199999605,4,1,0.35262139999395004,None,48.48173919999681,48.48778179999499,48.48778179999499,48.69316560000152,48.901521399995545,48.895288599997,48.895330299994384,48.901521399995545,49.59626040000148,,,,,,,,,,,,,,,,,,,,,,,,,,,,,,,,,,,,,,,,,,,,,,,,,,,,,,,,,,,,,,,sub105,motor,2,0,2024-08-08_10h03.07.220,ASRT_motor,2023.2.3,142.91512556168342,2024-08-08 10h03.47.724943 +0800,
sequences/sub105_initial_random.csv,3,270,3,1,red,,,,0,0,0,0,0,19,19,19,,,,,,,,,,,,,,,,,,,,,,,,,,,,,49.60297129999526,,,,,,,,,,,,,49.596963199997845,49.60297129999526,49.60297129999526,49.8040039999978,49.91074159999698,1,1,0.30399620000389405,None,49.911409399996046,49.917249499994796,49.917249499994796,50.12398559999565,50.33165929999814,50.32671069999924,50.32675209999434,50.33165929999814,51.026862699996855,,,,,,,,,,,,,,,,,,,,,,,,,,,,,,,,,,,,,,,,,,,,,,,,,,,,,,,,,,,,,,,sub105,motor,2,0,2024-08-08_10h03.07.220,ASRT_motor,2023.2.3,142.91512556168342,2024-08-08 10h03.47.724943 +0800,
sequences/sub105_initial_random.csv,2,180,2,2,red,,,,0,0,0,0,0,20,20,20,,,,,,,,,,,,,,,,,,,,,,,,,,,,,51.033813800000644,,,,,,,,,,,,,51.02750869999727,51.033813800000644,51.033813800000644,51.23462489999656,51.37623439999879,2,1,0.3367437999986578,None,51.37698929999897,51.38260050000099,51.38260050000099,51.589098399999784,51.79707760000019,51.79208529999596,51.79213080000045,51.79707760000019,52.4923348999946,,,,,,,,,,,,,,,,,,,,,,,,,,,,,,,,,,,,,,,,,,,,,,,,,,,,,,,,,,,,,,,sub105,motor,2,0,2024-08-08_10h03.07.220,ASRT_motor,2023.2.3,142.91512556168342,2024-08-08 10h03.47.724943 +0800,
sequences/sub105_initial_random.csv,1,90,1,3,red,,,,0,0,0,0,0,21,21,21,,,,,,,,,,,,,,,,,,,,,,,,,,,,,52.498953399997845,,,,,,,,,,,,,52.493079499996384,52.498953399997845,52.498953399997845,52.69959359999484,52.85508899999695,3,1,0.35040760000265436,None,52.85586409999814,52.861430899996776,52.861430899996776,53.068411399995966,53.27619479999703,53.27049460000126,53.270534899995255,53.27619479999703,53.971235799996066,,,,,,,,,,,,,,,,,,,,,,,,,,,,,,,,,,,,,,,,,,,,,,,,,,,,,,,,,,,,,,,sub105,motor,2,0,2024-08-08_10h03.07.220,ASRT_motor,2023.2.3,142.91512556168342,2024-08-08 10h03.47.724943 +0800,
sequences/sub105_initial_random.csv,1,90,1,3,red,,,,0,0,0,0,0,22,22,22,,,,,,,,,,,,,,,,,,,,,,,,,,,,,53.97888289999537,,,,,,,,,,,,,53.972042199995485,53.97888289999537,53.97888289999537,54.17893429999822,54.396136399998795,3,1,0.41012079999927664,None,54.39677590000065,54.40351179999561,54.40351179999561,54.60981809999794,54.81744919999619,54.81241349999618,54.812448799995764,54.81744919999619,55.512628999997105,,,,,,,,,,,,,,,,,,,,,,,,,,,,,,,,,,,,,,,,,,,,,,,,,,,,,,,,,,,,,,,sub105,motor,2,0,2024-08-08_10h03.07.220,ASRT_motor,2023.2.3,142.91512556168342,2024-08-08 10h03.47.724943 +0800,
sequences/sub105_initial_random.csv,3,270,3,1,red,,,,0,0,0,0,0,23,23,23,,,,,,,,,,,,,,,,,,,,,,,,,,,,,55.52016089999961,,,,,,,,,,,,,55.513468099998136,55.52016089999961,55.52016089999961,55.72003499999846,55.868826300000364,1,1,0.34183450000273297,None,55.86956509999436,55.87594859999808,55.87594859999808,56.0819829999964,56.29026139999769,56.284380899996904,56.28442730000097,56.29026139999769,56.98481729999912,,,,,,,,,,,,,,,,,,,,,,,,,,,,,,,,,,,,,,,,,,,,,,,,,,,,,,,,,,,,,,,sub105,motor,2,0,2024-08-08_10h03.07.220,ASRT_motor,2023.2.3,142.91512556168342,2024-08-08 10h03.47.724943 +0800,
sequences/sub105_initial_random.csv,0,0,0,4,red,,,,0,0,0,0,0,24,24,24,,,,,,,,,,,,,,,,,,,,,,,,,,,,,56.99182060000021,,,,,,,,,,,,,56.985441599994374,56.99182060000021,56.99182060000021,57.19313200000033,57.350831999996444,2,0,0.3556576999981189,None,57.35175289999461,57.36099909999757,57.36099909999757,57.56069999999454,57.769879599996784,57.76335989999643,57.763402399999904,57.769879599996784,58.46389110000018,,,,,,,,,,,,,,,,,,,,,,,,,,,,,,,,,,,,,,,,,,,,,,,,,,,,,,,,,,,,,,,sub105,motor,2,0,2024-08-08_10h03.07.220,ASRT_motor,2023.2.3,142.91512556168342,2024-08-08 10h03.47.724943 +0800,
sequences/sub105_initial_random.csv,3,270,3,1,red,,,,0,0,0,0,0,25,25,25,,,,,,,,,,,,,,,,,,,,,,,,,,,,,58.470507799996994,,,,,,,,,,,,,58.46448589999636,58.470507799996994,58.470507799996994,58.672334899994894,58.93146880000131,1,1,0.45465999999578344,None,58.93230129999574,58.941500499997346,58.941500499997346,59.14394840000023,59.352919699995255,59.34612489999563,59.34616019999521,59.352919699995255,60.047829600000114,,,,,,,,,,,,,,,,,,,,,,,,,,,,,,,,,,,,,,,,,,,,,,,,,,,,,,,,,,,,,,,sub105,motor,2,0,2024-08-08_10h03.07.220,ASRT_motor,2023.2.3,142.91512556168342,2024-08-08 10h03.47.724943 +0800,
sequences/sub105_initial_random.csv,2,180,2,2,red,,,,0,0,0,0,0,26,26,26,,,,,,,,,,,,,,,,,,,,,,,,,,,,,60.056380800000625,,,,,,,,,,,,,60.04854169999453,60.056380800000625,60.056380800000625,60.26309059999767,60.3904446000015,2,1,0.3272571000052267,None,60.391354699997464,60.398255499996594,60.398255499996594,60.60274109999591,60.81472650000069,60.8068002,60.80686009999772,60.81472650000069,61.5130857999975,,,,,,,,,,,,,,,,,,,,,,,,,,,,,,,,,,,,,,,,,,,,,,,,,,,,,,,,,,,,,,,sub105,motor,2,0,2024-08-08_10h03.07.220,ASRT_motor,2023.2.3,142.91512556168342,2024-08-08 10h03.47.724943 +0800,
sequences/sub105_initial_random.csv,3,270,3,1,red,,,,0,0,0,0,0,27,27,27,,,,,,,,,,,,,,,,,,,,,,,,,,,,,61.52198219999991,,,,,,,,,,,,,61.51399549999769,61.52198219999991,61.52198219999991,61.72771229999489,62.028660899995884,1,1,0.501004899997497,None,62.02938499999436,62.03590099999565,62.03590099999565,62.24195199999667,62.44976409999799,62.44422889999987,62.44427269999869,62.44976409999799,63.144493499996315,,,,,,,,,,,,,,,,,,,,,,,,,,,,,,,,,,,,,,,,,,,,,,,,,,,,,,,,,,,,,,,sub105,motor,2,0,2024-08-08_10h03.07.220,ASRT_motor,2023.2.3,142.91512556168342,2024-08-08 10h03.47.724943 +0800,
sequences/sub105_initial_random.csv,3,270,3,1,red,,,,0,0,0,0,0,28,28,28,,,,,,,,,,,,,,,,,,,,,,,,,,,,,63.15160979999928,,,,,,,,,,,,,63.14510650000011,63.15160979999928,63.15160979999928,63.35280879999482,63.537874000001466,1,1,0.3823383000053582,None,63.53963459999795,63.547886699998344,63.547886699998344,63.74881009999808,63.956586499996774,63.95090049999999,63.95094229999813,63.956586499996774,64.65146319999621,,,,,,,,,,,,,,,,,,,,,,,,,,,,,,,,,,,,,,,,,,,,,,,,,,,,,,,,,,,,,,,sub105,motor,2,0,2024-08-08_10h03.07.220,ASRT_motor,2023.2.3,142.91512556168342,2024-08-08 10h03.47.724943 +0800,
sequences/sub105_initial_random.csv,0,0,0,4,red,,,,0,0,0,0,0,29,29,29,,,,,,,,,,,,,,,,,,,,,,,,,,,,,64.65834509999695,,,,,,,,,,,,,64.65229089999775,64.65834509999695,64.65834509999695,64.85958820000087,65.06312120000075,4,1,0.3971841999955359,None,65.06382809999923,65.07026459999906,65.07026459999906,65.27572330000112,65.48429329999635,65.47838809999666,65.47842469999887,65.48429329999635,66.17854989999614,,,,,,,,,,,,,,,,,,,,,,,,,,,,,,,,,,,,,,,,,,,,,,,,,,,,,,,,,,,,,,,sub105,motor,2,0,2024-08-08_10h03.07.220,ASRT_motor,2023.2.3,142.91512556168342,2024-08-08 10h03.47.724943 +0800,
sequences/sub105_initial_random.csv,0,0,0,4,red,,,,0,0,0,0,0,30,30,30,,,,,,,,,,,,,,,,,,,,,,,,,,,,,66.18515539999498,,,,,,,,,,,,,66.17906930000026,66.18515539999498,66.18515539999498,66.38705320000008,66.63270119999652,4,1,0.4400041000044439,None,66.63355559999763,66.6406502999962,66.6406502999962,66.84582529999898,67.05364829999598,67.04758759999822,67.0476281999945,67.05364829999598,67.74838779999845,,,,,,,,,,,,,,,,,,,,,,,,,,,,,,,,,,,,,,,,,,,,,,,,,,,,,,,,,,,,,,,sub105,motor,2,0,2024-08-08_10h03.07.220,ASRT_motor,2023.2.3,142.91512556168342,2024-08-08 10h03.47.724943 +0800,
sequences/sub105_initial_random.csv,3,270,3,1,red,,,,0,0,0,0,0,31,31,31,,,,,,,,,,,,,,,,,,,,,,,,,,,,,67.75487489999796,,,,,,,,,,,,,67.7491230999949,67.75487489999796,67.75487489999796,67.95652439999685,68.16849449999427,1,1,0.40859370000544004,None,68.1694045999975,68.17801939999481,68.17801939999481,68.37983459999668,68.5886218999949,68.58237269999518,68.58241499999713,68.5886218999949,69.28319379999448,,,,,,,,,,,,,,,,,,,,,,,,,,,,,,,,,,,,,,,,,,,,,,,,,,,,,,,,,,,,,,,sub105,motor,2,0,2024-08-08_10h03.07.220,ASRT_motor,2023.2.3,142.91512556168342,2024-08-08 10h03.47.724943 +0800,
sequences/sub105_initial_random.csv,3,270,3,1,red,,,,0,0,0,0,0,32,32,32,,,,,,,,,,,,,,,,,,,,,,,,,,,,,69.29224629999953,,,,,,,,,,,,,69.28394899999694,69.29224629999953,69.29224629999953,69.49808889999986,69.6317921000009,1,1,0.3355297000016435,None,69.6324031999975,69.63877369999682,69.63877369999682,69.84649019999779,70.05383759999677,70.04772119999689,70.04775829999562,70.05383759999677,70.74889089999488,,,,,,,,,,,,,,,,,,,,,,,,,,,,,,,,,,,,,,,,,,,,,,,,,,,,,,,,,,,,,,,sub105,motor,2,0,2024-08-08_10h03.07.220,ASRT_motor,2023.2.3,142.91512556168342,2024-08-08 10h03.47.724943 +0800,
sequences/sub105_initial_random.csv,2,180,2,2,red,,,,0,0,0,0,0,33,33,33,,,,,,,,,,,,,,,,,,,,,,,,,,,,,70.75628709999728,,,,,,,,,,,,,70.74963459999708,70.75628709999728,70.75628709999728,70.95638640000107,71.20839999999589,1,0,0.44616490000043996,None,71.20902489999571,71.21643480000057,71.21643480000057,71.42231280000124,71.63161779999791,71.62471209999785,71.62520409999706,71.63161779999791,72.32558199999767,72.3321591999993,,,,,,,,,,,,,,,,,,,,,,,,,,,,,,,,,,,,,,,,,,,,,,,,,,,,,,,,,,,,,,sub105,motor,2,0,2024-08-08_10h03.07.220,ASRT_motor,2023.2.3,142.91512556168342,2024-08-08 10h03.47.724943 +0800,
sequences/sub105_initial_random.csv,3,270,3,1,red,,,,0,0,0,0,0,34,34,34,,,,,,,,,,,,,,,,,,,,,,,,,,,,,72.3321591999993,,,,,,,,,,,,,72.32619789999444,72.3321591999993,72.3321591999993,72.53290519999427,72.82711829999607,1,1,0.4887130999995861,None,72.82783299999574,72.83463539999502,72.83463539999502,73.04017249999742,73.24806379999791,73.24112800000148,73.24114529999497,73.24806379999791,73.94265209999867,,,,,,,,,,,,,,,,,,,,,,,,,,,,,,,,,,,,,,,,,,,,,,,,,,,,,,,,,,,,,,,sub105,motor,2,0,2024-08-08_10h03.07.220,ASRT_motor,2023.2.3,142.91512556168342,2024-08-08 10h03.47.724943 +0800,
sequences/sub105_initial_random.csv,3,270,3,1,red,,,,0,0,0,0,0,35,35,35,,,,,,,,,,,,,,,,,,,,,,,,,,,,,73.94929469999624,,,,,,,,,,,,,73.94326459999866,73.94929469999624,73.94929469999624,74.15072979999968,74.3213351000013,1,1,0.3660964000009699,None,74.32216340000014,74.33212999999523,74.33212999999523,74.53453669999726,74.74248879999504,74.73680089999834,74.73685899999691,74.74248879999504,75.43620279999595,75.44192949999706,,,,,,,,,,,,,,,,,,,,,,,,,,,,,,,,,,,,,,,,,,,,,,,,,,,,,,,,,,,,,,sub105,motor,2,0,2024-08-08_10h03.07.220,ASRT_motor,2023.2.3,142.91512556168342,2024-08-08 10h03.47.724943 +0800,
sequences/sub105_initial_random.csv,0,0,0,4,red,,,,0,0,0,0,0,36,36,36,,,,,,,,,,,,,,,,,,,,,,,,,,,,,75.44192949999706,,,,,,,,,,,,,75.43672569999762,75.44192949999706,75.44192949999706,75.64400179999939,75.88327159999608,4,1,0.43734699999913573,None,75.88420000000042,75.8911827999982,75.8911827999982,76.09514979999949,76.30488599999808,76.29818819999491,76.29823979999492,76.30488599999808,76.99899329999607,77.00485520000075,,,,,,,,,,,,,,,,,,,,,,,,,,,,,,,,,,,,,,,,,,,,,,,,,,,,,,,,,,,,,,sub105,motor,2,0,2024-08-08_10h03.07.220,ASRT_motor,2023.2.3,142.91512556168342,2024-08-08 10h03.47.724943 +0800,
sequences/sub105_initial_random.csv,0,0,0,4,red,,,,0,0,0,0,0,37,37,37,,,,,,,,,,,,,,,,,,,,,,,,,,,,,77.00485520000075,,,,,,,,,,,,,76.99958309999784,77.00485520000075,77.00485520000075,77.20647230000031,77.52224019999994,4,1,0.5111267999964184,None,77.52305340000021,77.53169769999658,77.53169769999658,77.73536149999563,77.94240369999898,77.93646150000131,77.93650189999607,77.94240369999898,78.63726329999918,,,,,,,,,,,,,,,,,,,,,,,,,,,,,,,,,,,,,,,,,,,,,,,,,,,,,,,,,,,,,,,sub105,motor,2,0,2024-08-08_10h03.07.220,ASRT_motor,2023.2.3,142.91512556168342,2024-08-08 10h03.47.724943 +0800,
sequences/sub105_initial_random.csv,0,0,0,4,red,,,,0,0,0,0,0,38,38,38,,,,,,,,,,,,,,,,,,,,,,,,,,,,,78.64570239999739,,,,,,,,,,,,,78.63797749999503,78.64570239999739,78.64570239999739,78.84549189999962,79.16677820000041,4,1,0.515861700005189,None,79.1675854999994,79.17320140000083,79.17320140000083,79.37970710000081,79.58938849999686,79.58346609999717,79.58351709999988,79.58938849999686,80.28377419999742,80.2914815999975,,,,,,,,,,,,,,,,,,,,,,,,,,,,,,,,,,,,,,,,,,,,,,,,,,,,,,,,,,,,,,sub105,motor,2,0,2024-08-08_10h03.07.220,ASRT_motor,2023.2.3,142.91512556168342,2024-08-08 10h03.47.724943 +0800,
sequences/sub105_initial_random.csv,2,180,2,2,red,,,,0,0,0,0,0,39,39,39,,,,,,,,,,,,,,,,,,,,,,,,,,,,,80.2914815999975,,,,,,,,,,,,,80.2844741000008,80.2914815999975,80.2914815999975,80.4915622999979,80.73575249999703,2,1,0.4392407999985153,None,80.73640009999508,80.74108739999792,80.74108739999792,80.94949110000016,81.15779979999934,81.15156269999716,81.15159259999928,81.15779979999934,81.85226939999848,,,,,,,,,,,,,,,,,,,,,,,,,,,,,,,,,,,,,,,,,,,,,,,,,,,,,,,,,,,,,,,sub105,motor,2,0,2024-08-08_10h03.07.220,ASRT_motor,2023.2.3,142.91512556168342,2024-08-08 10h03.47.724943 +0800,
sequences/sub105_initial_random.csv,0,0,0,4,red,,,,0,0,0,0,0,40,40,40,,,,,,,,,,,,,,,,,,,,,,,,,,,,,81.86140929999965,,,,,,,,,,,,,81.85344009999972,81.86140929999965,81.86140929999965,82.06794609999633,82.27925289999985,4,1,0.4117095999972662,None,82.28015359999699,82.28767109999899,82.28767109999899,82.49143660000118,82.70010589999583,82.6938616999978,82.69391209999594,82.70010589999583,83.39404859999922,,,,,,,,,,,,,,,,,,,,,,,,,,,,,,,,,,,,,,,,,,,,,,,,,,,,,,,,,,,,,,,sub105,motor,2,0,2024-08-08_10h03.07.220,ASRT_motor,2023.2.3,142.91512556168342,2024-08-08 10h03.47.724943 +0800,
sequences/sub105_initial_random.csv,3,270,3,1,red,,,,0,0,0,0,0,41,41,41,,,,,,,,,,,,,,,,,,,,,,,,,,,,,83.40110170000116,,,,,,,,,,,,,83.3947188999955,83.40110170000116,83.40110170000116,83.60205689999566,83.72913569999946,1,1,0.3228512000059709,None,83.7298821000004,83.73705559999507,83.73705559999507,83.94263829999545,84.15107979999448,84.14483089999703,84.1448792999945,84.15107979999448,84.8452668999962,,,,,,,,,,,,,,,,,,,,,,,,,,,,,,,,,,,,,,,,,,,,,,,,,,,,,,,,,,,,,,,sub105,motor,2,0,2024-08-08_10h03.07.220,ASRT_motor,2023.2.3,142.91512556168342,2024-08-08 10h03.47.724943 +0800,
sequences/sub105_initial_random.csv,0,0,0,4,red,,,,0,0,0,0,0,42,42,42,,,,,,,,,,,,,,,,,,,,,,,,,,,,,84.8533163999964,,,,,,,,,,,,,84.84585149999475,84.8533163999964,84.8533163999964,85.05333640000026,85.23540449999564,4,1,0.3765395000009448,None,85.2359634999957,85.24183020000055,85.24183020000055,85.44907679999596,85.6574427999949,85.65153659999487,85.65157399999589,85.6574427999949,86.35207829999854,,,,,,,,,,,,,,,,,,,,,,,,,,,,,,,,,,,,,,,,,,,,,,,,,,,,,,,,,,,,,,,sub105,motor,2,0,2024-08-08_10h03.07.220,ASRT_motor,2023.2.3,142.91512556168342,2024-08-08 10h03.47.724943 +0800,
sequences/sub105_initial_random.csv,0,0,0,4,red,,,,0,0,0,0,0,43,43,43,,,,,,,,,,,,,,,,,,,,,,,,,,,,,86.35979959999531,,,,,,,,,,,,,86.35275259999617,86.35979959999531,86.35979959999531,86.56098940000084,86.8207751000009,4,1,0.4576137000040035,None,86.8216207000005,86.82964089999587,86.82964089999587,87.03235280000081,87.24008969999704,87.23419379999541,87.23421750000125,87.24008969999704,87.9358487999998,,,,,,,,,,,,,,,,,,,,,,,,,,,,,,,,,,,,,,,,,,,,,,,,,,,,,,,,,,,,,,,sub105,motor,2,0,2024-08-08_10h03.07.220,ASRT_motor,2023.2.3,142.91512556168342,2024-08-08 10h03.47.724943 +0800,
sequences/sub105_initial_random.csv,3,270,3,1,red,,,,0,0,0,0,0,44,44,44,,,,,,,,,,,,,,,,,,,,,,,,,,,,,87.94398409999849,,,,,,,,,,,,,87.93658209999558,87.94398409999849,87.94398409999849,88.14354119999916,88.32559879999462,1,1,0.373970399996324,None,88.32626019999589,88.33149599999888,88.33149599999888,88.53958710000006,88.74792739999975,88.7418966999976,88.74194239999633,88.74792739999975,89.44232449999981,,,,,,,,,,,,,,,,,,,,,,,,,,,,,,,,,,,,,,,,,,,,,,,,,,,,,,,,,,,,,,,sub105,motor,2,0,2024-08-08_10h03.07.220,ASRT_motor,2023.2.3,142.91512556168342,2024-08-08 10h03.47.724943 +0800,
sequences/sub105_initial_random.csv,0,0,0,4,red,,,,0,0,0,0,0,45,45,45,,,,,,,,,,,,,,,,,,,,,,,,,,,,,89.45038039999781,,,,,,,,,,,,,89.44302719999541,89.45038039999781,89.45038039999781,89.65036680000048,89.91839649999747,4,1,0.45779449999827193,None,89.91930709999724,89.92832310000085,89.92832310000085,90.12931459999527,90.33799729999737,90.33330500000011,90.33335509999597,90.33799729999737,91.03433769999538,91.04136329999892,,,,,,,,,,,,,,,,,,,,,,,,,,,,,,,,,,,,,,,,,,,,,,,,,,,,,,,,,,,,,,sub105,motor,2,0,2024-08-08_10h03.07.220,ASRT_motor,2023.2.3,142.91512556168342,2024-08-08 10h03.47.724943 +0800,
sequences/sub105_initial_random.csv,1,90,1,3,red,,,,0,0,0,0,0,46,46,46,,,,,,,,,,,,,,,,,,,,,,,,,,,,,91.04136329999892,,,,,,,,,,,,,91.03501219999453,91.04136329999892,91.04136329999892,91.240518599996,91.41727269999683,3,1,0.36841260000073817,None,91.41822819999652,91.42525809999643,91.42525809999643,91.62946050000028,91.83934399999998,91.8343567999982,91.83440169999812,91.83934399999998,92.53369929999462,92.54193829999713,,,,,,,,,,,,,,,,,,,,,,,,,,,,,,,,,,,,,,,,,,,,,,,,,,,,,,,,,,,,,,sub105,motor,2,0,2024-08-08_10h03.07.220,ASRT_motor,2023.2.3,142.91512556168342,2024-08-08 10h03.47.724943 +0800,
sequences/sub105_initial_random.csv,2,180,2,2,red,,,,0,0,0,0,0,47,47,47,,,,,,,,,,,,,,,,,,,,,,,,,,,,,92.54193829999713,,,,,,,,,,,,,92.53431350000028,92.54193829999713,92.54193829999713,92.74749750000046,93.04934079999657,2,1,0.49881140000070445,None,93.05031700000109,93.05558639999799,93.05558639999799,93.26176269999996,93.47422050000023,93.47015629999805,93.47019899999577,93.47422050000023,94.17207179999969,,,,,,,,,,,,,,,,,,,,,,,,,,,,,,,,,,,,,,,,,,,,,,,,,,,,,,,,,,,,,,,sub105,motor,2,0,2024-08-08_10h03.07.220,ASRT_motor,2023.2.3,142.91512556168342,2024-08-08 10h03.47.724943 +0800,
sequences/sub105_initial_random.csv,3,270,3,1,red,,,,0,0,0,0,0,48,48,48,,,,,,,,,,,,,,,,,,,,,,,,,,,,,94.18038289999822,,,,,,,,,,,,,94.17296089999581,94.18038289999822,94.18038289999822,94.38666449999437,94.57878350000101,1,1,0.39501320000272244,None,94.5795231000011,94.58672189999925,94.58672189999925,94.78906129999814,94.99798499999451,94.99211609999475,94.99216219999653,94.99798499999451,95.69280499999877,,,,,,,,,,,,,,,,,,,,,,,,,,,,,,,,,,,,,,,,,,,,,,,,,,,,,,,,,,,,,,,sub105,motor,2,0,2024-08-08_10h03.07.220,ASRT_motor,2023.2.3,142.91512556168342,2024-08-08 10h03.47.724943 +0800,
sequences/sub105_initial_random.csv,3,270,3,1,red,,,,0,0,0,0,0,49,49,49,,,,,,,,,,,,,,,,,,,,,,,,,,,,,95.70245569999679,,,,,,,,,,,,,95.69361170000047,95.70245569999679,95.70245569999679,95.90728849999869,96.10493819999829,1,1,0.39977019999787444,None,96.10567230000015,96.11299579999468,96.11299579999468,96.31702509999741,96.52692240000033,96.5207861999952,96.5208502999958,96.52692240000033,97.22124780000013,97.22905029999674,,,,,,,,,,,,,,,,,,,,,,,,,,,,,,,,,,,,,,,,,,,,,,,,,,,,,,,,,,,,,,sub105,motor,2,0,2024-08-08_10h03.07.220,ASRT_motor,2023.2.3,142.91512556168342,2024-08-08 10h03.47.724943 +0800,
sequences/sub105_initial_random.csv,1,90,1,3,red,,,,0,0,0,0,0,50,50,50,,,,,,,,,,,,,,,,,,,,,,,,,,,,,97.22905029999674,,,,,,,,,,,,,97.22191349999775,97.22905029999674,97.22905029999674,97.42878569999448,97.59670729999925,3,1,0.3620267000005697,None,97.59737369999493,97.60225640000135,97.60225640000135,97.80982149999909,98.01852710000094,98.01368119999825,98.01372249999986,98.01852710000094,98.71418730000005,98.72063119999802,,,,,,,,,,,,,,,,,,,,,,,,,,,,,,,,,,,,,,,,,,,,,,,,,,,,,,,,,,,,,,sub105,motor,2,0,2024-08-08_10h03.07.220,ASRT_motor,2023.2.3,142.91512556168342,2024-08-08 10h03.47.724943 +0800,
sequences/sub105_initial_random.csv,3,270,3,1,red,,,,0,0,0,0,0,51,51,51,,,,,,,,,,,,,,,,,,,,,,,,,,,,,98.72063119999802,,,,,,,,,,,,,98.71479479999834,98.72063119999802,98.72063119999802,98.92102039999736,99.10544870000012,1,1,0.3813787000035518,None,99.106191699997,99.11361119999492,99.11361119999492,99.31715809999878,99.52722350000113,99.52070280000044,99.52076709999528,99.52722350000113,100.22130659999675,100.2285453000004,,,,,,,,,,,,,,,,,,,,,,,,,,,,,,,,,,,,,,,,,,,,,,,,,,,,,,,,,,,,,,sub105,motor,2,0,2024-08-08_10h03.07.220,ASRT_motor,2023.2.3,142.91512556168342,2024-08-08 10h03.47.724943 +0800,
sequences/sub105_initial_random.csv,3,270,3,1,red,,,,0,0,0,0,0,52,52,52,,,,,,,,,,,,,,,,,,,,,,,,,,,,,100.2285453000004,,,,,,,,,,,,,100.2221264999971,100.2285453000004,100.2285453000004,100.42791909999505,100.59801959999459,1,1,0.3662592999971821,None,100.59888439999486,100.60595889999968,100.60595889999968,100.80987939999613,101.0179158999963,101.01239579999674,101.01243729999987,101.0179158999963,101.71269699999539,,,,,,,,,,,,,,,,,,,,,,,,,,,,,,,,,,,,,,,,,,,,,,,,,,,,,,,,,,,,,,,sub105,motor,2,0,2024-08-08_10h03.07.220,ASRT_motor,2023.2.3,142.91512556168342,2024-08-08 10h03.47.724943 +0800,
sequences/sub105_initial_random.csv,1,90,1,3,red,,,,0,0,0,0,0,53,53,53,,,,,,,,,,,,,,,,,,,,,,,,,,,,,101.71932820000075,,,,,,,,,,,,,101.71348410000064,101.71932820000075,101.71932820000075,101.92091739999887,102.01430049999908,3,1,0.292572399994242,None,102.01498159999755,102.02215369999612,102.02215369999612,102.22676779999892,102.43515019999904,102.42911050000112,102.42915489999723,102.43515019999904,103.13021440000011,,,,,,,,,,,,,,,,,,,,,,,,,,,,,,,,,,,,,,,,,,,,,,,,,,,,,,,,,,,,,,,sub105,motor,2,0,2024-08-08_10h03.07.220,ASRT_motor,2023.2.3,142.91512556168342,2024-08-08 10h03.47.724943 +0800,
sequences/sub105_initial_random.csv,0,0,0,4,red,,,,0,0,0,0,0,54,54,54,,,,,,,,,,,,,,,,,,,,,,,,,,,,,103.13963169999624,,,,,,,,,,,,,103.1309620999964,103.13963169999624,103.13963169999624,103.34526879999612,103.48497759999736,4,1,0.3399576000010711,None,103.48572209999838,103.49128829999972,103.49128829999972,103.69849429999886,103.90708710000035,103.90204149999772,103.90208569999959,103.90708710000035,104.6028570999988,104.60965859999851,,,,,,,,,,,,,,,,,,,,,,,,,,,,,,,,,,,,,,,,,,,,,,,,,,,,,,,,,,,,,,sub105,motor,2,0,2024-08-08_10h03.07.220,ASRT_motor,2023.2.3,142.91512556168342,2024-08-08 10h03.47.724943 +0800,
sequences/sub105_initial_random.csv,0,0,0,4,red,,,,0,0,0,0,0,55,55,55,,,,,,,,,,,,,,,,,,,,,,,,,,,,,104.60965859999851,,,,,,,,,,,,,104.60346009999921,104.60965859999851,104.60965859999851,104.81000520000089,104.98664049999934,4,1,0.37191470000107074,None,104.98761169999489,104.99453669999639,104.99453669999639,105.19879429999855,105.40660299999581,105.40100230000098,105.40101889999642,105.40660299999581,106.10208769999736,,,,,,,,,,,,,,,,,,,,,,,,,,,,,,,,,,,,,,,,,,,,,,,,,,,,,,,,,,,,,,,sub105,motor,2,0,2024-08-08_10h03.07.220,ASRT_motor,2023.2.3,142.91512556168342,2024-08-08 10h03.47.724943 +0800,
sequences/sub105_initial_random.csv,2,180,2,2,red,,,,0,0,0,0,0,56,56,56,,,,,,,,,,,,,,,,,,,,,,,,,,,,,106.1086742999978,,,,,,,,,,,,,106.10268340000039,106.1086742999978,106.1086742999978,106.31036250000034,106.4864718999961,2,1,0.37480759999743896,None,106.48720049999974,106.4937204999951,106.4937204999951,106.69908769999893,106.906788399996,106.90163849999954,106.90168339999946,106.906788399996,107.60224400000152,,,,,,,,,,,,,,,,,,,,,,,,,,,,,,,,,,,,,,,,,,,,,,,,,,,,,,,,,,,,,,,sub105,motor,2,0,2024-08-08_10h03.07.220,ASRT_motor,2023.2.3,142.91512556168342,2024-08-08 10h03.47.724943 +0800,
sequences/sub105_initial_random.csv,3,270,3,1,red,,,,0,0,0,0,0,57,57,57,,,,,,,,,,,,,,,,,,,,,,,,,,,,,107.60828369999945,,,,,,,,,,,,,107.60287360000075,107.60828369999945,107.60828369999945,107.8103243000005,107.92346469999757,1,1,0.30799719999777153,None,107.92411770000035,107.92968779999501,107.92968779999501,108.13633539999864,108.34465069999715,108.33838979999564,108.33845099999598,108.34465069999715,109.03980719999527,,,,,,,,,,,,,,,,,,,,,,,,,,,,,,,,,,,,,,,,,,,,,,,,,,,,,,,,,,,,,,,sub105,motor,2,0,2024-08-08_10h03.07.220,ASRT_motor,2023.2.3,142.91512556168342,2024-08-08 10h03.47.724943 +0800,
sequences/sub105_initial_random.csv,3,270,3,1,red,,,,0,0,0,0,0,58,58,58,,,,,,,,,,,,,,,,,,,,,,,,,,,,,109.04839269999502,,,,,,,,,,,,,109.04070049999427,109.04839269999502,109.04839269999502,109.25486209999508,109.34021550000034,1,1,0.2845411000016611,None,109.34115190000011,109.34819009999774,109.34819009999774,109.55270899999596,109.7613904999962,109.75606249999691,109.75612279999768,109.7613904999962,110.45709409999836,110.46620389999589,,,,,,,,,,,,,,,,,,,,,,,,,,,,,,,,,,,,,,,,,,,,,,,,,,,,,,,,,,,,,,sub105,motor,2,0,2024-08-08_10h03.07.220,ASRT_motor,2023.2.3,142.91512556168342,2024-08-08 10h03.47.724943 +0800,
sequences/sub105_initial_random.csv,0,0,0,4,red,,,,0,0,0,0,0,59,59,59,,,,,,,,,,,,,,,,,,,,,,,,,,,,,110.46620389999589,,,,,,,,,,,,,110.45766970000113,110.46620389999589,110.46620389999589,110.67063969999435,110.8216953999945,4,1,0.35186959999555256,None,110.82250599999679,110.8295272999967,110.8295272999967,111.03269949999958,111.2409520000001,111.23522209999646,111.23526299999503,111.2409520000001,111.93523199999618,111.94209559999581,,,,,,,,,,,,,,,,,,,,,,,,,,,,,,,,,,,,,,,,,,,,,,,,,,,,,,,,,,,,,,sub105,motor,2,0,2024-08-08_10h03.07.220,ASRT_motor,2023.2.3,142.91512556168342,2024-08-08 10h03.47.724943 +0800,
sequences/sub105_initial_random.csv,2,180,2,2,red,,,,0,0,0,0,0,60,60,60,,,,,,,,,,,,,,,,,,,,,,,,,,,,,111.94209559999581,,,,,,,,,,,,,111.93577789999836,111.94209559999581,111.94209559999581,112.143024099998,112.30007889999979,2,1,0.3493434999982128,None,112.30102089999855,112.30979200000002,112.30979200000002,112.51105149999785,112.71940829999949,112.71331339999597,112.71335459999682,112.71940829999949,113.41400789999898,,,,,,,,,,,,,,,,,,,,,,,,,,,,,,,,,,,,,,,,,,,,,,,,,,,,,,,,,,,,,,,sub105,motor,2,0,2024-08-08_10h03.07.220,ASRT_motor,2023.2.3,142.91512556168342,2024-08-08 10h03.47.724943 +0800,
sequences/sub105_initial_random.csv,0,0,0,4,red,,,,0,0,0,0,0,61,61,61,,,,,,,,,,,,,,,,,,,,,,,,,,,,,113.4211656999978,,,,,,,,,,,,,113.41481470000144,113.4211656999978,113.4211656999978,113.62193049999769,113.84868199999619,4,1,0.4178182999967248,None,113.84939450000093,113.85467489999428,113.85467489999428,114.05967899999814,114.26765929999965,114.26264709999668,114.2626822999955,114.26765929999965,114.96340219999547,114.96920149999642,,,,,,,,,,,,,,,,,,,,,,,,,,,,,,,,,,,,,,,,,,,,,,,,,,,,,,,,,,,,,,sub105,motor,2,0,2024-08-08_10h03.07.220,ASRT_motor,2023.2.3,142.91512556168342,2024-08-08 10h03.47.724943 +0800,
sequences/sub105_initial_random.csv,0,0,0,4,red,,,,0,0,0,0,0,62,62,62,,,,,,,,,,,,,,,,,,,,,,,,,,,,,114.96920149999642,,,,,,,,,,,,,114.96412910000072,114.96920149999642,114.96920149999642,115.17092969999794,115.49327729999641,4,1,0.5188638000036008,None,115.49412379999558,115.50412879999931,115.50412879999931,115.70551119999436,115.91371549999894,115.90730020000046,115.90731519999827,115.91371549999894,116.60853099999804,,,,,,,,,,,,,,,,,,,,,,,,,,,,,,,,,,,,,,,,,,,,,,,,,,,,,,,,,,,,,,,sub105,motor,2,0,2024-08-08_10h03.07.220,ASRT_motor,2023.2.3,142.91512556168342,2024-08-08 10h03.47.724943 +0800,
sequences/sub105_initial_random.csv,0,0,0,4,red,,,,0,0,0,0,0,63,63,63,,,,,,,,,,,,,,,,,,,,,,,,,,,,,116.61490159999812,,,,,,,,,,,,,116.60938489999535,116.61490159999812,116.61490159999812,116.81686769999942,116.9999433999983,4,1,0.3765205999952741,None,117.00063659999432,117.00652179999452,117.00652179999452,117.21225949999643,117.42047569999704,117.41492459999427,117.41496989999723,117.42047569999704,118.11573119999957,,,,,,,,,,,,,,,,,,,,,,,,,,,,,,,,,,,,,,,,,,,,,,,,,,,,,,,,,,,,,,,sub105,motor,2,0,2024-08-08_10h03.07.220,ASRT_motor,2023.2.3,142.91512556168342,2024-08-08 10h03.47.724943 +0800,
sequences/sub105_initial_random.csv,0,0,0,4,red,,,,0,0,0,0,0,64,64,64,,,,,,,,,,,,,,,,,,,,,,,,,,,,,118.12578450000001,,,,,,,,,,,,,118.1165164999984,118.12578450000001,118.12578450000001,118.3305349000002,118.4505205999958,4,1,0.3200536000003922,None,118.45107209999696,118.4580347999945,118.4580347999945,118.66370309999911,118.87224440000136,118.86603109999851,118.86607979999826,118.87224440000136,119.56658629999583,,,,,,,,,,,,,,,,,,,,,,,,,,,,,,,,,,,,,,,,,,,,,,,,,,,,,,,,,,,,,,,sub105,motor,2,0,2024-08-08_10h03.07.220,ASRT_motor,2023.2.3,142.91512556168342,2024-08-08 10h03.47.724943 +0800,
sequences/sub105_initial_random.csv,0,0,0,4,red,,,,0,0,0,0,0,65,65,65,,,,,,,,,,,,,,,,,,,,,,,,,,,,,119.57329580000078,,,,,,,,,,,,,119.56712189999962,119.57329580000078,119.57329580000078,119.77507740000146,119.99897329999658,4,1,0.4215025000012247,None,119.99951779999537,120.00554549999651,120.00554549999651,120.21263419999741,120.4202890000015,120.414678000001,120.4147204999972,120.4202890000015,121.11535499999445,,,,,,,,,,,,,,,,,,,,,,,,,,,,,,,,,,,,,,,,,,,,,,,,,,,,,,,,,,,,,,,sub105,motor,2,0,2024-08-08_10h03.07.220,ASRT_motor,2023.2.3,142.91512556168342,2024-08-08 10h03.47.724943 +0800,
sequences/sub105_initial_random.csv,0,0,0,4,red,,,,0,0,0,0,0,66,66,66,,,,,,,,,,,,,,,,,,,,,,,,,,,,,121.1228454000011,,,,,,,,,,,,,121.11606699999538,121.1228454000011,121.1228454000011,121.32340429999749,121.528338600001,4,1,0.4017048999958206,None,121.5291900999946,121.53672109999752,121.53672109999752,121.74006319999899,121.94846659999894,121.9426095999952,121.9426611999952,121.94846659999894,122.64310609999666,,,,,,,,,,,,,,,,,,,,,,,,,,,,,,,,,,,,,,,,,,,,,,,,,,,,,,,,,,,,,,,sub105,motor,2,0,2024-08-08_10h03.07.220,ASRT_motor,2023.2.3,142.91512556168342,2024-08-08 10h03.47.724943 +0800,
sequences/sub105_initial_random.csv,3,270,3,1,red,,,,0,0,0,0,0,67,67,67,,,,,,,,,,,,,,,,,,,,,,,,,,,,,122.64936669999588,,,,,,,,,,,,,122.64377019999665,122.64936669999588,122.64936669999588,122.85118299999885,122.95815429999493,4,0,0.30487690000154544,None,122.95903439999529,122.9709062999973,122.9709062999973,123.17069819999597,123.37865590000001,123.37334449999616,123.37338530000125,123.37865590000001,124.07384449999518,,,,,,,,,,,,,,,,,,,,,,,,,,,,,,,,,,,,,,,,,,,,,,,,,,,,,,,,,,,,,,,sub105,motor,2,0,2024-08-08_10h03.07.220,ASRT_motor,2023.2.3,142.91512556168342,2024-08-08 10h03.47.724943 +0800,
sequences/sub105_initial_random.csv,0,0,0,4,red,,,,0,0,0,0,0,68,68,68,,,,,,,,,,,,,,,,,,,,,,,,,,,,,124.08094490000076,,,,,,,,,,,,,124.07442559999618,124.08094490000076,124.08094490000076,124.28161919999548,124.5786592000004,4,1,0.4871032000010018,None,124.57939880000049,124.58881239999755,124.58881239999755,124.78886010000133,124.99708219999593,124.99142929999653,124.99148089999653,124.99708219999593,125.69195839999884,,,,,,,,,,,,,,,,,,,,,,,,,,,,,,,,,,,,,,,,,,,,,,,,,,,,,,,,,,,,,,,sub105,motor,2,0,2024-08-08_10h03.07.220,ASRT_motor,2023.2.3,142.91512556168342,2024-08-08 10h03.47.724943 +0800,
sequences/sub105_initial_random.csv,3,270,3,1,red,,,,0,0,0,0,0,69,69,69,,,,,,,,,,,,,,,,,,,,,,,,,,,,,125.70037009999942,,,,,,,,,,,,,125.69278659999691,125.70037009999942,125.70037009999942,125.89972969999508,126.08895109999867,1,1,0.3828866000039852,None,126.0895418,126.0939967000013,126.0939967000013,126.3021344000008,126.51083870000002,126.50448699999833,126.50451899999462,126.51083870000002,127.20555590000004,,,,,,,,,,,,,,,,,,,,,,,,,,,,,,,,,,,,,,,,,,,,,,,,,,,,,,,,,,,,,,,sub105,motor,2,0,2024-08-08_10h03.07.220,ASRT_motor,2023.2.3,142.91512556168342,2024-08-08 10h03.47.724943 +0800,
sequences/sub105_initial_random.csv,0,0,0,4,red,,,,0,0,0,0,0,70,70,70,,,,,,,,,,,,,,,,,,,,,,,,,,,,,127.21176079999714,,,,,,,,,,,,,127.20609569999942,127.21176079999714,127.21176079999714,127.41337070000009,127.67252780000126,4,1,0.45764029999554623,None,127.67312759999913,127.67823979999957,127.67823979999957,127.88582909999968,128.09393979999732,128.0887705999994,128.0888216999956,128.09393979999732,128.7889223999955,128.79523329999938,,,,,,,,,,,,,,,,,,,,,,,,,,,,,,,,,,,,,,,,,,,,,,,,,,,,,,,,,,,,,,sub105,motor,2,0,2024-08-08_10h03.07.220,ASRT_motor,2023.2.3,142.91512556168342,2024-08-08 10h03.47.724943 +0800,
sequences/sub105_initial_random.csv,2,180,2,2,red,,,,0,0,0,0,0,71,71,71,,,,,,,,,,,,,,,,,,,,,,,,,,,,,128.79523329999938,,,,,,,,,,,,,128.78943169999548,128.79523329999938,128.79523329999938,128.99707749999652,129.36768209999718,2,1,0.5662416000050143,None,129.36858650000067,129.37530739999784,129.37530739999784,129.57984959999885,129.78825629999483,129.78263069999957,129.78268289999687,129.78825629999483,130.48287290000007,,,,,,,,,,,,,,,,,,,,,,,,,,,,,,,,,,,,,,,,,,,,,,,,,,,,,,,,,,,,,,,sub105,motor,2,0,2024-08-08_10h03.07.220,ASRT_motor,2023.2.3,142.91512556168342,2024-08-08 10h03.47.724943 +0800,
sequences/sub105_initial_random.csv,2,180,2,2,red,,,,0,0,0,0,0,72,72,72,,,,,,,,,,,,,,,,,,,,,,,,,,,,,130.49016090000077,,,,,,,,,,,,,130.48370419999992,130.49016090000077,130.49016090000077,130.69116159999976,130.77917249999882,1,0,0.2848405999975512,None,130.77995929999452,130.7906307999947,130.7906307999947,130.98999049999838,131.1978317999965,131.19299269999465,131.19304459999694,131.1978317999965,131.89398339999752,131.90085890000046,,,,,,,,,,,,,,,,,,,,,,,,,,,,,,,,,,,,,,,,,,,,,,,,,,,,,,,,,,,,,,sub105,motor,2,0,2024-08-08_10h03.07.220,ASRT_motor,2023.2.3,142.91512556168342,2024-08-08 10h03.47.724943 +0800,
sequences/sub105_initial_random.csv,1,90,1,3,red,,,,0,0,0,0,0,73,73,73,,,,,,,,,,,,,,,,,,,,,,,,,,,,,131.90085890000046,,,,,,,,,,,,,131.89456549999886,131.90085890000046,131.90085890000046,132.1010948999974,132.33094279999932,3,1,0.4226120000021183,None,132.3319921000002,132.346990799997,132.346990799997,132.54547759999696,132.75386119999894,132.74804210000002,132.74809309999546,132.75386119999894,133.44841530000122,,,,,,,,,,,,,,,,,,,,,,,,,,,,,,,,,,,,,,,,,,,,,,,,,,,,,,,,,,,,,,,sub105,motor,2,0,2024-08-08_10h03.07.220,ASRT_motor,2023.2.3,142.91512556168342,2024-08-08 10h03.47.724943 +0800,
sequences/sub105_initial_random.csv,2,180,2,2,red,,,,0,0,0,0,0,74,74,74,,,,,,,,,,,,,,,,,,,,,,,,,,,,,133.45556109999598,,,,,,,,,,,,,133.44910199999867,133.45556109999598,133.45556109999598,133.65643189999537,134.00536550000106,2,1,0.545806399997673,None,134.00604349999776,134.01176389999455,134.01176389999455,134.21867379999458,134.42689149999933,134.42102129999694,134.4210568999988,134.42689149999933,135.1219329000014,,,,,,,,,,,,,,,,,,,,,,,,,,,,,,,,,,,,,,,,,,,,,,,,,,,,,,,,,,,,,,,sub105,motor,2,0,2024-08-08_10h03.07.220,ASRT_motor,2023.2.3,142.91512556168342,2024-08-08 10h03.47.724943 +0800,
sequences/sub105_initial_random.csv,1,90,1,3,red,,,,0,0,0,0,0,75,75,75,,,,,,,,,,,,,,,,,,,,,,,,,,,,,135.12905049999972,,,,,,,,,,,,,135.12266259999888,135.12905049999972,135.12905049999972,135.3301050000009,135.575062099997,3,1,0.43986579999909736,None,135.57583409999643,135.58270609999454,135.58270609999454,135.7884978000002,135.99774109999998,135.99194709999574,135.99199809999845,135.99774109999998,136.69216890000098,136.69778699999733,,,,,,,,,,,,,,,,,,,,,,,,,,,,,,,,,,,,,,,,,,,,,,,,,,,,,,,,,,,,,,sub105,motor,2,0,2024-08-08_10h03.07.220,ASRT_motor,2023.2.3,142.91512556168342,2024-08-08 10h03.47.724943 +0800,
sequences/sub105_initial_random.csv,2,180,2,2,red,,,,0,0,0,0,0,76,76,76,,,,,,,,,,,,,,,,,,,,,,,,,,,,,136.69778699999733,,,,,,,,,,,,,136.69279919999826,136.69778699999733,136.69778699999733,136.89955519999785,137.2684442999962,2,1,0.5649689999991097,None,137.26872809999622,137.2748885999972,137.2748885999972,137.48267339999438,137.6913319000014,137.68632909999724,137.68638030000147,137.6913319000014,138.387112299999,138.39346569999907,,,,,,,,,,,,,,,,,,,,,,,,,,,,,,,,,,,,,,,,,,,,,,,,,,,,,,,,,,,,,,sub105,motor,2,0,2024-08-08_10h03.07.220,ASRT_motor,2023.2.3,142.91512556168342,2024-08-08 10h03.47.724943 +0800,
sequences/sub105_initial_random.csv,1,90,1,3,red,,,,0,0,0,0,0,77,77,77,,,,,,,,,,,,,,,,,,,,,,,,,,,,,138.39346569999907,,,,,,,,,,,,,138.38783229999535,138.39346569999907,138.39346569999907,138.59380750000128,138.84114469999622,3,1,0.4382961000010255,None,138.8420649999971,138.84807149999688,138.84807149999688,139.05266370000027,139.26039279999532,139.25429240000085,139.25433450000128,139.26039279999532,139.95736339999712,,,,,,,,,,,,,,,,,,,,,,,,,,,,,,,,,,,,,,,,,,,,,,,,,,,,,,,,,,,,,,,sub105,motor,2,0,2024-08-08_10h03.07.220,ASRT_motor,2023.2.3,142.91512556168342,2024-08-08 10h03.47.724943 +0800,
sequences/sub105_initial_random.csv,0,0,0,4,red,,,,0,0,0,0,0,78,78,78,,,,,,,,,,,,,,,,,,,,,,,,,,,,,139.96595259999594,,,,,,,,,,,,,139.95807399999467,139.96595259999594,139.96595259999594,140.17047620000085,140.3804369999998,4,1,0.41011450000223704,None,140.3811507999999,140.38701059999585,140.38701059999585,140.5934813999993,140.8022781999971,140.79657259999658,140.79661990000022,140.8022781999971,141.49680879999505,,,,,,,,,,,,,,,,,,,,,,,,,,,,,,,,,,,,,,,,,,,,,,,,,,,,,,,,,,,,,,,sub105,motor,2,0,2024-08-08_10h03.07.220,ASRT_motor,2023.2.3,142.91512556168342,2024-08-08 10h03.47.724943 +0800,
sequences/sub105_initial_random.csv,0,0,0,4,red,,,,0,0,0,0,0,79,79,79,,,,,,,,,,,,,,,,,,,,,,,,,,,,,141.50540609999734,,,,,,,,,,,,,141.49840630000108,141.50540609999734,141.50540609999734,141.70479779999732,141.88873829999648,4,1,0.37933049999992363,None,141.8897419999994,141.89551679999568,141.89551679999568,142.10064409999904,142.30867049999506,142.30393229999754,142.30397309999535,142.30867049999506,143.00409539999964,143.01176000000123,,,,,,,,,,,,,,,,,,,,,,,,,,,,,,,,,,,,,,,,,,,,,,,,,,,,,,,,,,,,,,sub105,motor,2,0,2024-08-08_10h03.07.220,ASRT_motor,2023.2.3,142.91512556168342,2024-08-08 10h03.47.724943 +0800,
sequences/sub105_initial_random.csv,2,180,2,2,red,,,,0,0,0,0,0,80,80,80,,,,,,,,,,,,,,,,,,,,,,,,,,,,,143.01176000000123,,,,,,,,,,,,,143.00458269999945,143.01176000000123,143.01176000000123,143.2114294999992,143.51281899999594,2,1,0.4946845999947982,None,143.513652499998,143.51980699999694,143.51980699999694,143.72544489999564,143.934081899999,143.92811950000032,143.92815459999838,143.934081899999,144.628357900001,,,,,,,,,,,,,,,,,,,,,,,,,,,,,,,,,,,,,,,,,,,,,,,,,,,,,,,,,,,,,,,sub105,motor,2,0,2024-08-08_10h03.07.220,ASRT_motor,2023.2.3,142.91512556168342,2024-08-08 10h03.47.724943 +0800,
sequences/sub105_initial_random.csv,2,180,2,2,red,,,,0,0,0,0,0,81,81,81,,,,,,,,,,,,,,,,,,,,,,,,,,,,,144.63542189999862,,,,,,,,,,,,,144.62889859999996,144.63542189999862,144.63542189999862,144.83711049999692,145.10420019999583,2,1,0.46459820000018226,None,145.1051182999945,145.1122233999995,145.1122233999995,145.3156364999959,145.5243113999968,145.51825049999752,145.51828369999566,145.5243113999968,146.21923629999947,,,,,,,,,,,,,,,,,,,,,,,,,,,,,,,,,,,,,,,,,,,,,,,,,,,,,,,,,,,,,,,sub105,motor,2,0,2024-08-08_10h03.07.220,ASRT_motor,2023.2.3,142.91512556168342,2024-08-08 10h03.47.724943 +0800,
sequences/sub105_initial_random.csv,2,180,2,2,red,,,,0,0,0,0,0,82,82,82,,,,,,,,,,,,,,,,,,,,,,,,,,,,,146.22532159999537,,,,,,,,,,,,,146.22024989999773,146.22532159999537,146.22532159999537,146.42768229999638,146.6299674999973,2,1,0.40058760000101756,None,146.63062929999433,146.63584089999495,146.63584089999495,146.84341019999556,147.05205439999554,147.04675380000117,147.04681500000152,147.05205439999554,147.74755770000047,147.7553687999971,,,,,,,,,,,,,,,,,,,,,,,,,,,,,,,,,,,,,,,,,,,,,,,,,,,,,,,,,,,,,,sub105,motor,2,0,2024-08-08_10h03.07.220,ASRT_motor,2023.2.3,142.91512556168342,2024-08-08 10h03.47.724943 +0800,
sequences/sub105_initial_random.csv,2,180,2,2,red,,,,0,0,0,0,0,83,83,83,,,,,,,,,,,,,,,,,,,,,,,,,,,,,147.7553687999971,,,,,,,,,,,,,147.7482330999992,147.7553687999971,147.7553687999971,147.95450970000093,148.17995330000122,2,1,0.4208146000019042,None,148.18067169999995,148.18734069999482,148.18734069999482,148.39193890000024,148.60063239999727,148.5940632999991,148.5940910999998,148.60063239999727,149.29544349999924,,,,,,,,,,,,,,,,,,,,,,,,,,,,,,,,,,,,,,,,,,,,,,,,,,,,,,,,,,,,,,,sub105,motor,2,0,2024-08-08_10h03.07.220,ASRT_motor,2023.2.3,142.91512556168342,2024-08-08 10h03.47.724943 +0800,
sequences/sub105_initial_random.csv,0,0,0,4,red,,,,0,0,0,0,0,84,84,84,,,,,,,,,,,,,,,,,,,,,,,,,,,,,149.3021959999969,,,,,,,,,,,,,149.2960238999949,149.3021959999969,149.3021959999969,149.50311879999936,149.73626879999938,4,1,0.4263954999987618,None,149.7369980000003,149.74572890000127,149.74572890000127,149.94755639999494,150.15605539999524,150.15081799999462,150.1508640999964,150.15605539999524,150.85110509999504,,,,,,,,,,,,,,,,,,,,,,,,,,,,,,,,,,,,,,,,,,,,,,,,,,,,,,,,,,,,,,,sub105,motor,2,0,2024-08-08_10h03.07.220,ASRT_motor,2023.2.3,142.91512556168342,2024-08-08 10h03.47.724943 +0800,
,,,,,,,,,,,,,,,,,,,,,,,,,,,,,,,,,,,,,,,,,,,,,,,,,,,,,,,,,,,,,,,,,,,,,,,,,,,,,150.85139779999736,150.90473819999897,150.90473819999897,176.21915749999607,space,25.309517900001083,None,176.21986910000123,176.22474769999826,176.22474769999826,176.22474769999826,199.5322337999969,space,23.305373399998643,None,,,,,,,,,,,,,,,,,,,,,,,,,,,,,,,,,,,,,,,,,,,,,,,sub105,motor,2,0,2024-08-08_10h03.07.220,ASRT_motor,2023.2.3,142.91512556168342,2024-08-08 10h03.47.724943 +0800,
,1,90,2,2,red,sequences/sub105_practice_sequence_00.csv,,,,,,,,,,,0,0,0,0,0,0,0,29,,,,,,,,,,,,,,,,,,,,,200.56376810000074,,,,,,,,,,199.56430589999945,199.56868050000048,200.53723519999767,200.56077039999946,200.56376810000074,200.56376810000074,200.76600489999691,201.06052149999596,2,1,0.4934295999992173,None,201.06158879999566,201.06924789999903,201.06924789999903,201.27295779999986,201.48050279999734,201.4758245999983,201.4758634999962,201.48050279999734,202.1764522999947,202.18219490000047,,,,,,,,,,,,,,,,,,,,,,,,,,,,,,,,,,,,,,,,,,,,,,,,,,,,,,,,,,,,,,sub105,motor,2,0,2024-08-08_10h03.07.220,ASRT_motor,2023.2.3,142.91512556168342,2024-08-08 10h03.47.724943 +0800,
,2,180,3,1,red,sequences/sub105_practice_sequence_00.csv,,,,,,,,,,,0,0,0,0,0,1,1,48,,,,,,,,,,,,,,,,,,,,,202.18219490000047,,,,,,,,,,,,,202.17705249999563,202.18219490000047,202.18219490000047,202.3841564999966,202.85857119999855,1,1,0.6724404000051436,None,202.85916979999456,202.86457009999867,202.86457009999867,203.07122549999622,203.28020370000013,203.27485099999467,203.2748958000011,203.28020370000013,203.97517959999823,203.98123240000132,,,,,,,,,,,,,,,,,,,,,,,,,,,,,,,,,,,,,,,,,,,,,,,,,,,,,,,,,,,,,,sub105,motor,2,0,2024-08-08_10h03.07.220,ASRT_motor,2023.2.3,142.91512556168342,2024-08-08 10h03.47.724943 +0800,
,2,180,3,1,red,sequences/sub105_practice_sequence_00.csv,,,,,,,,,,,0,0,0,0,0,2,2,84,,,,,,,,,,,,,,,,,,,,,203.98123240000132,,,,,,,,,,,,,203.9758548999962,203.98123240000132,203.98123240000132,204.18279329999496,204.58064739999827,1,1,0.5927102999994531,None,204.58136730000115,204.5878825999971,204.5878825999971,204.7937094000008,205.00176959999953,204.99594739999884,204.9959824999969,205.00176959999953,205.69636029999674,,,,,,,,,,,,,,,,,,,,,,,,,,,,,,,,,,,,,,,,,,,,,,,,,,,,,,,,,,,,,,,sub105,motor,2,0,2024-08-08_10h03.07.220,ASRT_motor,2023.2.3,142.91512556168342,2024-08-08 10h03.47.724943 +0800,
,1,90,2,2,red,sequences/sub105_practice_sequence_00.csv,,,,,,,,,,,0,0,0,0,0,3,3,83,,,,,,,,,,,,,,,,,,,,,205.7037300000011,,,,,,,,,,,,,205.6969953000007,205.7037300000011,205.7037300000011,205.9046629000004,206.66374489999725,4,0,0.9530931999979657,None,206.66439979999996,206.67265719999705,206.67265719999705,206.87688979999803,207.0852201999951,207.07988069999556,207.07991089999996,207.0852201999951,207.78073259999655,207.7863176999963,,,,,,,,,,,,,,,,,,,,,,,,,,,,,,,,,,,,,,,,,,,,,,,,,,,,,,,,,,,,,,sub105,motor,2,0,2024-08-08_10h03.07.220,ASRT_motor,2023.2.3,142.91512556168342,2024-08-08 10h03.47.724943 +0800,
,0,0,1,3,red,sequences/sub105_practice_sequence_00.csv,,,,,,,,,,,0,0,0,0,0,4,4,26,,,,,,,,,,,,,,,,,,,,,207.7863176999963,,,,,,,,,,,,,207.78135509999993,207.7863176999963,207.7863176999963,207.98809179999807,208.64220260000002,3,1,0.8514422000007471,None,208.64274840000144,208.64729090000037,208.64729090000037,208.8561591999969,209.06435329999658,209.05838640000002,209.05842609999672,209.06435329999658,209.75894259999768,,,,,,,,,,,,,,,,,,,,,,,,,,,,,,,,,,,,,,,,,,,,,,,,,,,,,,,,,,,,,,,sub105,motor,2,0,2024-08-08_10h03.07.220,ASRT_motor,2023.2.3,142.91512556168342,2024-08-08 10h03.47.724943 +0800,
,0,0,1,3,red,sequences/sub105_practice_sequence_00.csv,,,,,,,,,,,0,0,0,0,0,5,5,5,,,,,,,,,,,,,,,,,,,,,209.7655816999977,,,,,,,,,,,,,209.75958439999522,209.7655816999977,209.7655816999977,209.9671029999954,210.33042139999452,3,1,0.5591202999930829,None,210.3310438999979,210.33638059999794,210.33638059999794,210.54338339999958,210.75189329999557,210.74599979999766,210.74604120000004,210.75189329999557,211.44617789999756,,,,,,,,,,,,,,,,,,,,,,,,,,,,,,,,,,,,,,,,,,,,,,,,,,,,,,,,,,,,,,,sub105,motor,2,0,2024-08-08_10h03.07.220,ASRT_motor,2023.2.3,142.91512556168342,2024-08-08 10h03.47.724943 +0800,
,0,0,1,3,red,sequences/sub105_practice_sequence_00.csv,,,,,,,,,,,0,0,0,0,0,6,6,56,,,,,,,,,,,,,,,,,,,,,211.4529693000004,,,,,,,,,,,,,211.4468807999947,211.4529693000004,211.4529693000004,211.6544522999975,212.06063469999935,3,1,0.6032874000011361,None,212.06133769999724,212.06839169999876,212.06839169999876,212.2723285999964,212.48074809999525,212.47493309999845,212.47496699999465,212.48074809999525,213.17556049999985,,,,,,,,,,,,,,,,,,,,,,,,,,,,,,,,,,,,,,,,,,,,,,,,,,,,,,,,,,,,,,,sub105,motor,2,0,2024-08-08_10h03.07.220,ASRT_motor,2023.2.3,142.91512556168342,2024-08-08 10h03.47.724943 +0800,
,0,0,1,3,red,sequences/sub105_practice_sequence_00.csv,,,,,,,,,,,0,0,0,0,0,7,7,7,,,,,,,,,,,,,,,,,,,,,213.18215079999936,,,,,,,,,,,,,213.17613239999628,213.18215079999936,213.18215079999936,213.38396619999548,213.73408509999717,3,1,0.5428356000047643,None,213.7346522000007,213.74044660000072,213.74044660000072,213.94616769999993,214.15463759999693,214.14869879999605,214.14874039999995,214.15463759999693,214.84910639999725,,,,,,,,,,,,,,,,,,,,,,,,,,,,,,,,,,,,,,,,,,,,,,,,,,,,,,,,,,,,,,,sub105,motor,2,0,2024-08-08_10h03.07.220,ASRT_motor,2023.2.3,142.91512556168342,2024-08-08 10h03.47.724943 +0800,
,3,270,0,4,red,sequences/sub105_practice_sequence_00.csv,,,,,,,,,,,0,0,0,0,0,8,8,0,,,,,,,,,,,,,,,,,,,,,214.85563339999499,,,,,,,,,,,,,214.84958489999553,214.85563339999499,214.85563339999499,215.05748379999568,215.74241719999554,4,1,0.8833142000003136,None,215.74322329999995,215.74921489999542,215.74921489999542,215.953033400001,216.16136669999833,216.1563748999979,216.15641989999858,216.16136669999833,216.85662339999544,216.86246219999884,,,,,,,,,,,,,,,,,,,,,,,,,,,,,,,,,,,,,,,,,,,,,,,,,,,,,,,,,,,,,,sub105,motor,2,0,2024-08-08_10h03.07.220,ASRT_motor,2023.2.3,142.91512556168342,2024-08-08 10h03.47.724943 +0800,
,2,180,3,1,red,sequences/sub105_practice_sequence_00.csv,,,,,,,,,,,0,0,0,0,0,9,9,32,,,,,,,,,,,,,,,,,,,,,216.86246219999884,,,,,,,,,,,,,216.85722829999577,216.86246219999884,216.86246219999884,217.06442709999828,217.73552299999574,1,1,0.868551400002616,None,217.73649419999856,217.74881069999537,217.74881069999537,217.94604199999594,218.15458919999946,218.14869519999775,218.14873649999936,218.15458919999946,218.84893519999605,,,,,,,,,,,,,,,,,,,,,,,,,,,,,,,,,,,,,,,,,,,,,,,,,,,,,,,,,,,,,,,sub105,motor,2,0,2024-08-08_10h03.07.220,ASRT_motor,2023.2.3,142.91512556168342,2024-08-08 10h03.47.724943 +0800,
,1,90,2,2,red,sequences/sub105_practice_sequence_00.csv,,,,,,,,,,,0,0,0,0,0,10,10,47,,,,,,,,,,,,,,,,,,,,,218.8555950000009,,,,,,,,,,,,,218.84939830000076,218.8555950000009,218.8555950000009,219.05740399999922,219.78926769999816,2,1,0.9310706999967806,None,219.78994460000104,219.79799349999666,219.79799349999666,220.00205469999491,220.2099187999993,220.20374340000126,220.20377929999813,220.2099187999993,220.90448900000047,,,,,,,,,,,,,,,,,,,,,,,,,,,,,,,,,,,,,,,,,,,,,,,,,,,,,,,,,,,,,,,sub105,motor,2,0,2024-08-08_10h03.07.220,ASRT_motor,2023.2.3,142.91512556168342,2024-08-08 10h03.47.724943 +0800,
,3,270,0,4,red,sequences/sub105_practice_sequence_00.csv,,,,,,,,,,,0,0,0,0,0,11,11,39,,,,,,,,,,,,,,,,,,,,,220.9112640999956,,,,,,,,,,,,,220.9049578999984,220.9112640999956,220.9112640999956,221.11276379999617,221.5753549000001,4,1,0.6593330000032438,None,221.57608099999925,221.58307179999974,221.58307179999974,221.7861855999945,221.99454729999707,221.98878989999503,221.98885639999935,221.99454729999707,222.68909279999934,,,,,,,,,,,,,,,,,,,,,,,,,,,,,,,,,,,,,,,,,,,,,,,,,,,,,,,,,,,,,,,sub105,motor,2,0,2024-08-08_10h03.07.220,ASRT_motor,2023.2.3,142.91512556168342,2024-08-08 10h03.47.724943 +0800,
,1,90,2,2,red,sequences/sub105_practice_sequence_00.csv,,,,,,,,,,,0,0,0,0,0,12,12,74,,,,,,,,,,,,,,,,,,,,,222.6959519000011,,,,,,,,,,,,,222.68963449999865,222.6959519000011,222.6959519000011,222.8974414999975,223.2956331999958,2,1,0.5961396999991848,None,223.29623049999645,223.3023985999971,223.3023985999971,223.5083272999982,223.71655699999974,223.7104255000013,223.71044999999867,223.71655699999974,224.4114300000001,,,,,,,,,,,,,,,,,,,,,,,,,,,,,,,,,,,,,,,,,,,,,,,,,,,,,,,,,,,,,,,sub105,motor,2,0,2024-08-08_10h03.07.220,ASRT_motor,2023.2.3,142.91512556168342,2024-08-08 10h03.47.724943 +0800,
,1,90,2,2,red,sequences/sub105_practice_sequence_00.csv,,,,,,,,,,,0,0,0,0,0,13,13,64,,,,,,,,,,,,,,,,,,,,,224.4187410999948,,,,,,,,,,,,,224.41204260000086,224.4187410999948,224.4187410999948,224.6197686000014,225.16233149999607,2,1,0.7365190999989863,None,225.1629252999992,225.1683933999957,225.1683933999957,225.37637689999974,225.58511,225.57894020000094,225.578975299999,225.58511,226.27938210000138,,,,,,,,,,,,,,,,,,,,,,,,,,,,,,,,,,,,,,,,,,,,,,,,,,,,,,,,,,,,,,,sub105,motor,2,0,2024-08-08_10h03.07.220,ASRT_motor,2023.2.3,142.91512556168342,2024-08-08 10h03.47.724943 +0800,
,3,270,0,4,red,sequences/sub105_practice_sequence_00.csv,,,,,,,,,,,0,0,0,0,0,14,14,10,,,,,,,,,,,,,,,,,,,,,226.2859408000004,,,,,,,,,,,,,226.2799384999962,226.2859408000004,226.2859408000004,226.4877164999998,227.15588109999953,4,1,0.8626041000024998,None,227.15648059999512,227.16290819999995,227.16290819999995,227.3692166999972,227.57777469999564,227.572204600001,227.57223919999524,227.57777469999564,228.27258659999643,,,,,,,,,,,,,,,,,,,,,,,,,,,,,,,,,,,,,,,,,,,,,,,,,,,,,,,,,,,,,,,sub105,motor,2,0,2024-08-08_10h03.07.220,ASRT_motor,2023.2.3,142.91512556168342,2024-08-08 10h03.47.724943 +0800,
,1,90,2,2,red,sequences/sub105_practice_sequence_00.csv,,,,,,,,,,,0,0,0,0,0,15,15,22,,,,,,,,,,,,,,,,,,,,,228.27888349999557,,,,,,,,,,,,,228.27299669999775,228.27888349999557,228.27888349999557,228.48105509999732,228.8384589999987,2,1,0.5561244999989867,None,228.8391249999986,228.8459789999979,228.8459789999979,229.04984119999426,229.25820419999945,229.25286689999484,229.2529085999995,229.25820419999945,229.9533680999957,,,,,,,,,,,,,,,,,,,,,,,,,,,,,,,,,,,,,,,,,,,,,,,,,,,,,,,,,,,,,,,sub105,motor,2,0,2024-08-08_10h03.07.220,ASRT_motor,2023.2.3,142.91512556168342,2024-08-08 10h03.47.724943 +0800,
,2,180,3,1,red,sequences/sub105_practice_sequence_00.csv,,,,,,,,,,,0,0,0,0,0,16,16,57,,,,,,,,,,,,,,,,,,,,,229.96022529999755,,,,,,,,,,,,,229.9540593999991,229.96022529999755,229.96022529999755,230.16106439999567,230.55862989999878,1,1,0.593200600000273,None,230.5593813999949,230.5642841000008,230.5642841000008,230.7726874,230.98062270000082,230.97431089999736,230.97434280000016,230.98062270000082,231.67519499999617,,,,,,,,,,,,,,,,,,,,,,,,,,,,,,,,,,,,,,,,,,,,,,,,,,,,,,,,,,,,,,,sub105,motor,2,0,2024-08-08_10h03.07.220,ASRT_motor,2023.2.3,142.91512556168342,2024-08-08 10h03.47.724943 +0800,
,2,180,3,1,red,sequences/sub105_practice_sequence_00.csv,,,,,,,,,,,0,0,0,0,0,17,17,17,,,,,,,,,,,,,,,,,,,,,231.68173810000008,,,,,,,,,,,,,231.67579779999505,231.68173810000008,231.68173810000008,231.88367879999714,232.25308599999698,1,1,0.5681575999988127,None,232.25359829999798,232.25911169999745,232.25911169999745,232.46687749999546,232.67477700000018,232.6694744999986,232.66951539999718,232.67477700000018,233.36981789999845,,,,,,,,,,,,,,,,,,,,,,,,,,,,,,,,,,,,,,,,,,,,,,,,,,,,,,,,,,,,,,,sub105,motor,2,0,2024-08-08_10h03.07.220,ASRT_motor,2023.2.3,142.91512556168342,2024-08-08 10h03.47.724943 +0800,
,0,0,1,3,red,sequences/sub105_practice_sequence_00.csv,,,,,,,,,,,0,0,0,0,0,18,18,55,,,,,,,,,,,,,,,,,,,,,233.37747089999903,,,,,,,,,,,,,233.37044649999734,233.37747089999903,233.37747089999903,233.57788599999913,234.1429363999996,3,1,0.7604620999991312,None,234.14360759999545,234.14976979999483,234.14976979999483,234.35583129999577,234.56430649999675,234.55854459999682,234.55879429999914,234.56430649999675,235.25875199999427,,,,,,,,,,,,,,,,,,,,,,,,,,,,,,,,,,,,,,,,,,,,,,,,,,,,,,,,,,,,,,,sub105,motor,2,0,2024-08-08_10h03.07.220,ASRT_motor,2023.2.3,142.91512556168342,2024-08-08 10h03.47.724943 +0800,
,1,90,2,2,red,sequences/sub105_practice_sequence_00.csv,,,,,,,,,,,0,0,0,0,0,19,19,81,,,,,,,,,,,,,,,,,,,,,235.26502880000044,,,,,,,,,,,,,235.25961580000148,235.26502880000044,235.26502880000044,235.46684419999656,236.03130450000026,2,1,0.7607321000032243,None,236.03198909999628,236.0376421999972,236.0376421999972,236.2444730999996,236.45285090000107,236.44703659999504,236.4470696999997,236.45285090000107,237.1475266999987,,,,,,,,,,,,,,,,,,,,,,,,,,,,,,,,,,,,,,,,,,,,,,,,,,,,,,,,,,,,,,,sub105,motor,2,0,2024-08-08_10h03.07.220,ASRT_motor,2023.2.3,142.91512556168342,2024-08-08 10h03.47.724943 +0800,
,0,0,1,3,red,sequences/sub105_practice_sequence_00.csv,,,,,,,,,,,0,0,0,0,0,20,20,58,,,,,,,,,,,,,,,,,,,,,237.15409519999957,,,,,,,,,,,,,237.1481941999955,237.15409519999957,237.15409519999957,237.35596869999426,237.8919295999949,3,1,0.73060770000302,None,237.89295270000002,237.89896329999465,237.89896329999465,238.10519199999544,238.31382879999728,238.3079643999954,238.30800610000006,238.31382879999728,239.00846810000075,,,,,,,,,,,,,,,,,,,,,,,,,,,,,,,,,,,,,,,,,,,,,,,,,,,,,,,,,,,,,,,sub105,motor,2,0,2024-08-08_10h03.07.220,ASRT_motor,2023.2.3,142.91512556168342,2024-08-08 10h03.47.724943 +0800,
,3,270,0,4,red,sequences/sub105_practice_sequence_00.csv,,,,,,,,,,,0,0,0,0,0,21,21,75,,,,,,,,,,,,,,,,,,,,,239.01529070000106,,,,,,,,,,,,,239.00925229999848,239.01529070000106,239.01529070000106,239.21646289999626,239.60049789999903,4,1,0.5791148999996949,None,239.6012097999992,239.60893949999445,239.60893949999445,239.81347389999428,240.02186969999457,240.0167122999992,240.01675070000056,240.02186969999457,240.7168657000002,,,,,,,,,,,,,,,,,,,,,,,,,,,,,,,,,,,,,,,,,,,,,,,,,,,,,,,,,,,,,,,sub105,motor,2,0,2024-08-08_10h03.07.220,ASRT_motor,2023.2.3,142.91512556168342,2024-08-08 10h03.47.724943 +0800,
,3,270,0,4,red,sequences/sub105_practice_sequence_00.csv,,,,,,,,,,,0,0,0,0,0,22,22,49,,,,,,,,,,,,,,,,,,,,,240.7259133999978,,,,,,,,,,,,,240.7175008999984,240.7259133999978,240.7259133999978,240.92479769999773,241.33189969999512,4,1,0.5968718000003719,None,241.33262280000054,241.33783089999633,241.33783089999633,241.54249239999626,241.7510742000013,241.7453183999969,241.74535900000046,241.7510742000013,242.44541000000027,,,,,,,,,,,,,,,,,,,,,,,,,,,,,,,,,,,,,,,,,,,,,,,,,,,,,,,,,,,,,,,sub105,motor,2,0,2024-08-08_10h03.07.220,ASRT_motor,2023.2.3,142.91512556168342,2024-08-08 10h03.47.724943 +0800,
,2,180,3,1,red,sequences/sub105_practice_sequence_00.csv,,,,,,,,,,,0,0,0,0,0,23,23,27,,,,,,,,,,,,,,,,,,,,,242.45411030000105,,,,,,,,,,,,,242.44646939999802,242.45411030000105,242.45411030000105,242.65364679999766,243.32271789999504,1,1,0.8637938999963808,None,243.3235069000002,243.32906789999834,243.32906789999834,243.5358286999981,243.7444217999946,243.7392544999966,243.73930019999534,243.7444217999946,244.439426799996,244.4457895000014,,,,,,,,,,,,,,,,,,,,,,,,,,,,,,,,,,,,,,,,,,,,,,,,,,,,,,,,,,,,,,sub105,motor,2,0,2024-08-08_10h03.07.220,ASRT_motor,2023.2.3,142.91512556168342,2024-08-08 10h03.47.724943 +0800,
,2,180,3,1,red,sequences/sub105_practice_sequence_00.csv,,,,,,,,,,,0,0,0,0,0,24,24,46,,,,,,,,,,,,,,,,,,,,,244.4457895000014,,,,,,,,,,,,,244.44044089999807,244.4457895000014,244.4457895000014,244.64689240000007,244.97552319999522,1,1,0.5237964999978431,None,244.97621299999446,244.9824066000001,244.9824066000001,245.18862899999658,245.39669499999582,245.3908153999946,245.3908506000007,245.39669499999582,246.09144519999973,,,,,,,,,,,,,,,,,,,,,,,,,,,,,,,,,,,,,,,,,,,,,,,,,,,,,,,,,,,,,,,sub105,motor,2,0,2024-08-08_10h03.07.220,ASRT_motor,2023.2.3,142.91512556168342,2024-08-08 10h03.47.724943 +0800,
,2,180,3,1,red,sequences/sub105_practice_sequence_00.csv,,,,,,,,,,,0,0,0,0,0,25,25,44,,,,,,,,,,,,,,,,,,,,,246.09835039999598,,,,,,,,,,,,,246.09213189999718,246.09835039999598,246.09835039999598,246.2994078999982,246.5248197999972,1,1,0.42424909999681404,None,246.52549390000058,246.53161980000004,246.53161980000004,246.73701150000124,246.94525430000067,246.9396729,246.93971310000052,246.94525430000067,247.6402603999959,,,,,,,,,,,,,,,,,,,,,,,,,,,,,,,,,,,,,,,,,,,,,,,,,,,,,,,,,,,,,,,sub105,motor,2,0,2024-08-08_10h03.07.220,ASRT_motor,2023.2.3,142.91512556168342,2024-08-08 10h03.47.724943 +0800,
,0,0,1,3,red,sequences/sub105_practice_sequence_00.csv,,,,,,,,,,,0,0,0,0,0,26,26,60,,,,,,,,,,,,,,,,,,,,,247.6466392000002,,,,,,,,,,,,,247.6408933999992,247.6466392000002,247.6466392000002,247.84817859999748,248.31046929999866,3,1,0.6612365999972099,None,248.3111962999974,248.3173186999993,248.3173186999993,248.52212589999544,248.73198609999963,248.7246421999953,248.72469229999842,248.73198609999963,249.42533009999897,249.43127509999613,,,,,,,,,,,,,,,,,,,,,,,,,,,,,,,,,,,,,,,,,,,,,,,,,,,,,,,,,,,,,,sub105,motor,2,0,2024-08-08_10h03.07.220,ASRT_motor,2023.2.3,142.91512556168342,2024-08-08 10h03.47.724943 +0800,
,0,0,1,3,red,sequences/sub105_practice_sequence_00.csv,,,,,,,,,,,0,0,0,0,0,27,27,33,,,,,,,,,,,,,,,,,,,,,249.43127509999613,,,,,,,,,,,,,249.4260271999956,249.43127509999613,249.43127509999613,249.63287570000102,250.03054119999433,3,1,0.5948604000004707,None,250.03120209999906,250.03715910000028,250.03715910000028,250.24429699999746,250.4521042999986,250.44645189999574,250.446523599996,250.4521042999986,251.14730229999986,,,,,,,,,,,,,,,,,,,,,,,,,,,,,,,,,,,,,,,,,,,,,,,,,,,,,,,,,,,,,,,sub105,motor,2,0,2024-08-08_10h03.07.220,ASRT_motor,2023.2.3,142.91512556168342,2024-08-08 10h03.47.724943 +0800,
,1,90,2,2,red,sequences/sub105_practice_sequence_00.csv,,,,,,,,,,,0,0,0,0,0,28,28,69,,,,,,,,,,,,,,,,,,,,,251.1543853999974,,,,,,,,,,,,,251.14800439999817,251.1543853999974,251.1543853999974,251.35521639999934,251.83626199999708,2,1,0.676992100001371,None,251.8368113999968,251.8419012999948,251.8419012999948,252.04947009999887,252.25768479999533,252.25151819999883,252.25158589999774,252.25768479999533,252.95267719999538,,,,,,,,,,,,,,,,,,,,,,,,,,,,,,,,,,,,,,,,,,,,,,,,,,,,,,,,,,,,,,,sub105,motor,2,0,2024-08-08_10h03.07.220,ASRT_motor,2023.2.3,142.91512556168342,2024-08-08 10h03.47.724943 +0800,
,0,0,1,3,red,sequences/sub105_practice_sequence_00.csv,,,,,,,,,,,0,0,0,0,0,29,29,8,,,,,,,,,,,,,,,,,,,,,252.9601834999994,,,,,,,,,,,,,252.95338400000037,252.9601834999994,252.9601834999994,253.16070809999655,253.6302801999991,3,1,0.6666409000026761,None,253.63154949999443,253.63665599999513,253.63665599999513,253.84223599999677,254.05035430000135,254.04508769999666,254.04514869999548,254.05035430000135,254.74539309999818,254.75290339999628,,,,,,,,,,,,,,,,,,,,,,,,,,,,,,,,,,,,,,,,,,,,,,,,,,,,,,,,,,,,,,sub105,motor,2,0,2024-08-08_10h03.07.220,ASRT_motor,2023.2.3,142.91512556168342,2024-08-08 10h03.47.724943 +0800,
,0,0,1,3,red,sequences/sub105_practice_sequence_00.csv,,,,,,,,,,,0,0,0,0,0,30,30,16,,,,,,,,,,,,,,,,,,,,,254.75290339999628,,,,,,,,,,,,,254.74605959999462,254.75290339999628,254.75290339999628,254.95295449999685,255.35351739999896,3,1,0.5905280999941169,None,255.35506180000084,255.36413109999557,255.36413109999557,255.56574289999844,255.77873429999454,255.77200099999754,255.77203709999594,255.77873429999454,256.47284679999575,,,,,,,,,,,,,,,,,,,,,,,,,,,,,,,,,,,,,,,,,,,,,,,,,,,,,,,,,,,,,,,sub105,motor,2,0,2024-08-08_10h03.07.220,ASRT_motor,2023.2.3,142.91512556168342,2024-08-08 10h03.47.724943 +0800,
,2,180,3,1,red,sequences/sub105_practice_sequence_00.csv,,,,,,,,,,,0,0,0,0,0,31,31,62,,,,,,,,,,,,,,,,,,,,,256.48051829999895,,,,,,,,,,,,,256.4732339999973,256.48051829999895,256.48051829999895,256.68363829999726,257.17730409999785,1,1,0.6923079999978654,None,257.17793349999556,257.18627079999715,257.18627079999715,257.39318300000014,257.61874949999765,257.6121002,257.6121392999994,257.61874949999765,258.3138622999977,,,,,,,,,,,,,,,,,,,,,,,,,,,,,,,,,,,,,,,,,,,,,,,,,,,,,,,,,,,,,,,sub105,motor,2,0,2024-08-08_10h03.07.220,ASRT_motor,2023.2.3,142.91512556168342,2024-08-08 10h03.47.724943 +0800,
,2,180,3,1,red,sequences/sub105_practice_sequence_00.csv,,,,,,,,,,,0,0,0,0,0,32,32,21,,,,,,,,,,,,,,,,,,,,,258.3244979999945,,,,,,,,,,,,,258.31485619999876,258.3244979999945,258.3244979999945,258.5218304000009,258.9580790999971,1,1,0.6302017999987584,None,258.95909329999995,258.9712182000003,258.9712182000003,259.1882179999957,259.41207510000095,259.4093259000001,259.4093578999964,259.41207510000095,260.1073505999957,260.1191500999994,,,,,,,,,,,,,,,,,,,,,,,,,,,,,,,,,,,,,,,,,,,,,,,,,,,,,,,,,,,,,,sub105,motor,2,0,2024-08-08_10h03.07.220,ASRT_motor,2023.2.3,142.91512556168342,2024-08-08 10h03.47.724943 +0800,
,3,270,0,4,red,sequences/sub105_practice_sequence_00.csv,,,,,,,,,,,0,0,0,0,0,33,33,14,,,,,,,,,,,,,,,,,,,,,260.1191500999994,,,,,,,,,,,,,260.1083230000004,260.1191500999994,260.1191500999994,260.32037039999705,260.7496495000014,4,1,0.6253467000060482,None,260.7504196000009,260.7599906999967,260.7599906999967,260.95944299999974,261.16961699999956,261.16313100000116,261.16319929999736,261.16961699999956,261.8657196999993,,,,,,,,,,,,,,,,,,,,,,,,,,,,,,,,,,,,,,,,,,,,,,,,,,,,,,,,,,,,,,,sub105,motor,2,0,2024-08-08_10h03.07.220,ASRT_motor,2023.2.3,142.91512556168342,2024-08-08 10h03.47.724943 +0800,
,0,0,1,3,red,sequences/sub105_practice_sequence_00.csv,,,,,,,,,,,0,0,0,0,0,34,34,15,,,,,,,,,,,,,,,,,,,,,261.88089419999596,,,,,,,,,,,,,261.86717879999924,261.88089419999596,261.88089419999596,262.07676809999975,262.40868809999665,3,1,0.5231118999945465,None,262.4093638999984,262.4140832999983,262.4140832999983,262.61856049999915,262.82715749999625,262.82276479999564,262.82284999999683,262.82715749999625,263.5223307999986,263.52846589999535,,,,,,,,,,,,,,,,,,,,,,,,,,,,,,,,,,,,,,,,,,,,,,,,,,,,,,,,,,,,,,sub105,motor,2,0,2024-08-08_10h03.07.220,ASRT_motor,2023.2.3,142.91512556168342,2024-08-08 10h03.47.724943 +0800,
,1,90,2,2,red,sequences/sub105_practice_sequence_00.csv,,,,,,,,,,,0,0,0,0,0,35,35,31,,,,,,,,,,,,,,,,,,,,,263.52846589999535,,,,,,,,,,,,,263.52288229999976,263.52846589999535,263.52846589999535,263.72979009999835,264.1417583000002,2,1,0.6105240000033518,None,264.1424986999991,264.1480072999984,264.1480072999984,264.3544810999956,264.5631949999952,264.5574015999955,264.5574370999966,264.5631949999952,265.25802159999876,,,,,,,,,,,,,,,,,,,,,,,,,,,,,,,,,,,,,,,,,,,,,,,,,,,,,,,,,,,,,,,sub105,motor,2,0,2024-08-08_10h03.07.220,ASRT_motor,2023.2.3,142.91512556168342,2024-08-08 10h03.47.724943 +0800,
,0,0,1,3,red,sequences/sub105_practice_sequence_00.csv,,,,,,,,,,,0,0,0,0,0,36,36,77,,,,,,,,,,,,,,,,,,,,,265.2654690999989,,,,,,,,,,,,,265.25866400000086,265.2654690999989,265.2654690999989,265.46598609999637,265.89770979999594,3,1,0.6262729999943986,None,265.8982885000005,265.9036808999954,265.9036808999954,266.11182669999835,266.3199781000003,266.3144431999972,266.3144919999977,266.3199781000003,267.0146193999972,,,,,,,,,,,,,,,,,,,,,,,,,,,,,,,,,,,,,,,,,,,,,,,,,,,,,,,,,,,,,,,sub105,motor,2,0,2024-08-08_10h03.07.220,ASRT_motor,2023.2.3,142.91512556168342,2024-08-08 10h03.47.724943 +0800,
,0,0,1,3,red,sequences/sub105_practice_sequence_00.csv,,,,,,,,,,,0,0,0,0,0,37,37,54,,,,,,,,,,,,,,,,,,,,,267.0213211999944,,,,,,,,,,,,,267.0152444999985,267.0213211999944,267.0213211999944,267.22314759999426,267.64177099999506,3,1,0.6137241999967955,None,267.6424210999976,267.6475913999966,267.6475913999966,267.8547503999944,268.0634027999986,268.0579015999974,268.0579529999959,268.0634027999986,268.7587668999986,268.76542889999837,,,,,,,,,,,,,,,,,,,,,,,,,,,,,,,,,,,,,,,,,,,,,,,,,,,,,,,,,,,,,,sub105,motor,2,0,2024-08-08_10h03.07.220,ASRT_motor,2023.2.3,142.91512556168342,2024-08-08 10h03.47.724943 +0800,
,2,180,3,1,red,sequences/sub105_practice_sequence_00.csv,,,,,,,,,,,0,0,0,0,0,38,38,1,,,,,,,,,,,,,,,,,,,,,268.76542889999837,,,,,,,,,,,,,268.759378499999,268.76542889999837,268.76542889999837,268.9658746999994,269.3509372999979,1,1,0.5812213000026532,None,269.35164670000086,269.3577933999986,269.3577933999986,269.5628022999954,269.7714425000013,269.7652317999964,269.7652698999955,269.7714425000013,270.466190799998,,,,,,,,,,,,,,,,,,,,,,,,,,,,,,,,,,,,,,,,,,,,,,,,,,,,,,,,,,,,,,,sub105,motor,2,0,2024-08-08_10h03.07.220,ASRT_motor,2023.2.3,142.91512556168342,2024-08-08 10h03.47.724943 +0800,
,2,180,3,1,red,sequences/sub105_practice_sequence_00.csv,,,,,,,,,,,0,0,0,0,0,39,39,19,,,,,,,,,,,,,,,,,,,,,270.47247849999985,,,,,,,,,,,,,270.46671599999536,270.47247849999985,270.47247849999985,270.6742058999953,271.04535939999914,1,1,0.5682986999963759,None,271.04611179999483,271.05211119999876,271.05211119999876,271.2574766999969,271.4655006999965,271.46005519999744,271.46009349999804,271.4655006999965,272.1604722999982,,,,,,,,,,,,,,,,,,,,,,,,,,,,,,,,,,,,,,,,,,,,,,,,,,,,,,,,,,,,,,,sub105,motor,2,0,2024-08-08_10h03.07.220,ASRT_motor,2023.2.3,142.91512556168342,2024-08-08 10h03.47.724943 +0800,
,1,90,2,2,red,sequences/sub105_practice_sequence_00.csv,,,,,,,,,,,0,0,0,0,0,40,40,20,,,,,,,,,,,,,,,,,,,,,272.1670779999986,,,,,,,,,,,,,272.16111129999626,272.1670779999986,272.1670779999986,272.3685761000015,272.9776051999943,2,1,0.7998915999996825,None,272.9782294999968,272.98345249999693,272.98345249999693,273.1878499999948,273.3963259999946,273.3906616999957,273.3907042999999,273.3963259999946,274.09101219999866,,,,,,,,,,,,,,,,,,,,,,,,,,,,,,,,,,,,,,,,,,,,,,,,,,,,,,,,,,,,,,,sub105,motor,2,0,2024-08-08_10h03.07.220,ASRT_motor,2023.2.3,142.91512556168342,2024-08-08 10h03.47.724943 +0800,
,2,180,3,1,red,sequences/sub105_practice_sequence_00.csv,,,,,,,,,,,0,0,0,0,0,41,41,42,,,,,,,,,,,,,,,,,,,,,274.0973373000015,,,,,,,,,,,,,274.0914980999951,274.0973373000015,274.0973373000015,274.29945790000056,274.7318238000007,1,1,0.6317244000019855,None,274.73252919999504,274.73833749999903,274.73833749999903,274.9448962999959,275.15309479999996,275.1469068000006,275.1469399999987,275.15309479999996,275.84792729999754,,,,,,,,,,,,,,,,,,,,,,,,,,,,,,,,,,,,,,,,,,,,,,,,,,,,,,,,,,,,,,,sub105,motor,2,0,2024-08-08_10h03.07.220,ASRT_motor,2023.2.3,142.91512556168342,2024-08-08 10h03.47.724943 +0800,
,0,0,1,3,red,sequences/sub105_practice_sequence_00.csv,,,,,,,,,,,0,0,0,0,0,42,42,11,,,,,,,,,,,,,,,,,,,,,275.8546774999995,,,,,,,,,,,,,275.84850119999464,275.8546774999995,275.8546774999995,276.05610769999475,276.5227278999955,3,1,0.6620761000012862,None,276.5233466999998,276.53062469999713,276.53062469999713,276.7364415999982,276.9447443999961,276.938473299997,276.93854079999437,276.9447443999961,277.6393934000007,,,,,,,,,,,,,,,,,,,,,,,,,,,,,,,,,,,,,,,,,,,,,,,,,,,,,,,,,,,,,,,sub105,motor,2,0,2024-08-08_10h03.07.220,ASRT_motor,2023.2.3,142.91512556168342,2024-08-08 10h03.47.724943 +0800,
,1,90,2,2,red,sequences/sub105_practice_sequence_00.csv,,,,,,,,,,,0,0,0,0,0,43,43,78,,,,,,,,,,,,,,,,,,,,,277.6458790999968,,,,,,,,,,,,,277.64003039999807,277.6458790999968,277.6458790999968,277.8479683999976,278.33209519999946,2,1,0.6751492000039434,None,278.3328948999988,278.34122809999826,278.34122809999826,278.542704200001,278.75161389999994,278.7457760999969,278.74584469999536,278.75161389999994,279.4462885999965,279.45320649999485,,,,,,,,,,,,,,,,,,,,,,,,,,,,,,,,,,,,,,,,,,,,,,,,,,,,,,,,,,,,,,sub105,motor,2,0,2024-08-08_10h03.07.220,ASRT_motor,2023.2.3,142.91512556168342,2024-08-08 10h03.47.724943 +0800,
,0,0,1,3,red,sequences/sub105_practice_sequence_00.csv,,,,,,,,,,,0,0,0,0,0,44,44,23,,,,,,,,,,,,,,,,,,,,,279.45320649999485,,,,,,,,,,,,,279.4469960999995,279.45320649999485,279.45320649999485,279.6537729999982,280.10785159999796,3,1,0.6506055000063498,None,280.108493599997,280.1147787999944,280.1147787999944,280.3201489999992,280.5288763999997,280.5230384999959,280.52309689999674,280.5288763999997,281.22404760000063,281.23025939999934,,,,,,,,,,,,,,,,,,,,,,,,,,,,,,,,,,,,,,,,,,,,,,,,,,,,,,,,,,,,,,sub105,motor,2,0,2024-08-08_10h03.07.220,ASRT_motor,2023.2.3,142.91512556168342,2024-08-08 10h03.47.724943 +0800,
,3,270,0,4,red,sequences/sub105_practice_sequence_00.csv,,,,,,,,,,,0,0,0,0,0,45,45,35,,,,,,,,,,,,,,,,,,,,,281.23025939999934,,,,,,,,,,,,,281.22478129999945,281.23025939999934,281.23025939999934,281.43120009999984,281.98933060000127,4,1,0.7508242999974755,None,281.990169699995,281.99607609999657,281.99607609999657,282.20187669999723,282.4104886999994,282.40493140000035,282.4049812999947,282.4104886999994,283.10597179999604,283.1123703999983,,,,,,,,,,,,,,,,,,,,,,,,,,,,,,,,,,,,,,,,,,,,,,,,,,,,,,,,,,,,,,sub105,motor,2,0,2024-08-08_10h03.07.220,ASRT_motor,2023.2.3,142.91512556168342,2024-08-08 10h03.47.724943 +0800,
,1,90,2,2,red,sequences/sub105_practice_sequence_00.csv,,,,,,,,,,,0,0,0,0,0,46,46,63,,,,,,,,,,,,,,,,,,,,,283.1123703999983,,,,,,,,,,,,,283.106732799999,283.1123703999983,283.1123703999983,283.31343569999444,283.82223339999473,2,1,0.7033339999979944,None,283.82286770000064,283.82761780000146,283.82761780000146,284.03483199999755,284.2431093999985,284.23711419999745,284.2371512999962,284.2431093999985,284.93801529999473,,,,,,,,,,,,,,,,,,,,,,,,,,,,,,,,,,,,,,,,,,,,,,,,,,,,,,,,,,,,,,,sub105,motor,2,0,2024-08-08_10h03.07.220,ASRT_motor,2023.2.3,142.91512556168342,2024-08-08 10h03.47.724943 +0800,
,0,0,1,3,red,sequences/sub105_practice_sequence_00.csv,,,,,,,,,,,0,0,0,0,0,47,47,51,,,,,,,,,,,,,,,,,,,,,284.9443714999943,,,,,,,,,,,,,284.9387164,284.9443714999943,284.9443714999943,285.1464386000007,285.576730599998,3,1,0.6254957999990438,None,285.57705339999666,285.5829414999971,285.5829414999971,285.79214879999927,286.0008283999996,285.9945290999967,285.99457429999893,286.0008283999996,286.69536089999747,,,,,,,,,,,,,,,,,,,,,,,,,,,,,,,,,,,,,,,,,,,,,,,,,,,,,,,,,,,,,,,sub105,motor,2,0,2024-08-08_10h03.07.220,ASRT_motor,2023.2.3,142.91512556168342,2024-08-08 10h03.47.724943 +0800,
,2,180,3,1,red,sequences/sub105_practice_sequence_00.csv,,,,,,,,,,,0,0,0,0,0,48,48,34,,,,,,,,,,,,,,,,,,,,,286.7023071000003,,,,,,,,,,,,,286.6959891000006,286.7023071000003,286.7023071000003,286.9029792000001,287.2815466999964,1,1,0.5703042999957688,None,287.28219429999444,287.28748079999787,287.28748079999787,287.49352530000033,287.702065999998,287.6954052000001,287.69544309999765,287.702065999998,288.3960261999964,,,,,,,,,,,,,,,,,,,,,,,,,,,,,,,,,,,,,,,,,,,,,,,,,,,,,,,,,,,,,,,sub105,motor,2,0,2024-08-08_10h03.07.220,ASRT_motor,2023.2.3,142.91512556168342,2024-08-08 10h03.47.724943 +0800,
,2,180,3,1,red,sequences/sub105_practice_sequence_00.csv,,,,,,,,,,,0,0,0,0,0,49,49,52,,,,,,,,,,,,,,,,,,,,,288.4028590999951,,,,,,,,,,,,,288.3965559999997,288.4028590999951,288.4028590999951,288.6045776999963,288.93321099999594,1,1,0.5219273999973666,None,288.93393249999644,288.9407912999959,288.9407912999959,289.1456315999967,289.3543558999954,289.34881559999485,289.3488565000007,289.3543558999954,290.0490659999996,,,,,,,,,,,,,,,,,,,,,,,,,,,,,,,,,,,,,,,,,,,,,,,,,,,,,,,,,,,,,,,sub105,motor,2,0,2024-08-08_10h03.07.220,ASRT_motor,2023.2.3,142.91512556168342,2024-08-08 10h03.47.724943 +0800,
,3,270,0,4,red,sequences/sub105_practice_sequence_00.csv,,,,,,,,,,,0,0,0,0,0,50,50,28,,,,,,,,,,,,,,,,,,,,,290.0576360999985,,,,,,,,,,,,,290.0498338999969,290.0576360999985,290.0576360999985,290.257445999996,290.7210011999996,4,1,0.6594008000029135,None,290.72198059999937,290.73103669999546,290.73103669999546,290.9306931999963,291.1392660999991,291.13352999999915,291.13357189999806,291.1392660999991,291.8344438999993,291.84428739999566,,,,,,,,,,,,,,,,,,,,,,,,,,,,,,,,,,,,,,,,,,,,,,,,,,,,,,,,,,,,,,sub105,motor,2,0,2024-08-08_10h03.07.220,ASRT_motor,2023.2.3,142.91512556168342,2024-08-08 10h03.47.724943 +0800,
,0,0,1,3,red,sequences/sub105_practice_sequence_00.csv,,,,,,,,,,,0,0,0,0,0,51,51,82,,,,,,,,,,,,,,,,,,,,,291.84428739999566,,,,,,,,,,,,,291.8352528999967,291.84428739999566,291.84428739999566,292.04931529999885,292.38485129999754,3,1,0.5360625000030268,None,292.3855318999995,292.39261629999964,292.39261629999964,292.59788280000066,292.8053867999988,292.80029719999584,292.8003435999999,292.8053867999988,293.5012542999975,293.50926849999814,,,,,,,,,,,,,,,,,,,,,,,,,,,,,,,,,,,,,,,,,,,,,,,,,,,,,,,,,,,,,,sub105,motor,2,0,2024-08-08_10h03.07.220,ASRT_motor,2023.2.3,142.91512556168342,2024-08-08 10h03.47.724943 +0800,
,3,270,0,4,red,sequences/sub105_practice_sequence_00.csv,,,,,,,,,,,0,0,0,0,0,52,52,80,,,,,,,,,,,,,,,,,,,,,293.50926849999814,,,,,,,,,,,,,293.5019067999965,293.50926849999814,293.50926849999814,293.7085025999986,294.26093299999775,4,1,0.7486028999992413,None,294.2617218000014,294.2694913000014,294.2694913000014,294.47231949999696,294.680689599998,294.6754282999973,294.6754699000012,294.680689599998,295.37659949999943,295.3845852999948,,,,,,,,,,,,,,,,,,,,,,,,,,,,,,,,,,,,,,,,,,,,,,,,,,,,,,,,,,,,,,sub105,motor,2,0,2024-08-08_10h03.07.220,ASRT_motor,2023.2.3,142.91512556168342,2024-08-08 10h03.47.724943 +0800,
,3,270,0,4,red,sequences/sub105_practice_sequence_00.csv,,,,,,,,,,,0,0,0,0,0,53,53,79,,,,,,,,,,,,,,,,,,,,,295.3845852999948,,,,,,,,,,,,,295.37731429999985,295.3845852999948,295.3845852999948,295.5909681999983,295.98411849999684,4,1,0.5942167999965022,None,295.9849899999972,295.9930355999968,295.9930355999968,296.1948451999997,296.4051790999947,296.3982013999994,296.39825839999685,296.4051790999947,297.0986411999984,297.1065712999989,,,,,,,,,,,,,,,,,,,,,,,,,,,,,,,,,,,,,,,,,,,,,,,,,,,,,,,,,,,,,,sub105,motor,2,0,2024-08-08_10h03.07.220,ASRT_motor,2023.2.3,142.91512556168342,2024-08-08 10h03.47.724943 +0800,
,0,0,1,3,red,sequences/sub105_practice_sequence_00.csv,,,,,,,,,,,0,0,0,0,0,54,54,30,,,,,,,,,,,,,,,,,,,,,297.1065712999989,,,,,,,,,,,,,297.0993066999945,297.1065712999989,297.1065712999989,297.31244519999746,297.66485499999544,3,1,0.5541908999948646,None,297.6656135999947,297.6732899999988,297.6732899999988,297.8750082999977,298.08368789999804,298.0784352999981,298.0784932999959,298.08368789999804,298.77907749999576,298.78474239999923,,,,,,,,,,,,,,,,,,,,,,,,,,,,,,,,,,,,,,,,,,,,,,,,,,,,,,,,,,,,,,sub105,motor,2,0,2024-08-08_10h03.07.220,ASRT_motor,2023.2.3,142.91512556168342,2024-08-08 10h03.47.724943 +0800,
,0,0,1,3,red,sequences/sub105_practice_sequence_00.csv,,,,,,,,,,,0,0,0,0,0,55,55,72,,,,,,,,,,,,,,,,,,,,,298.78474239999923,,,,,,,,,,,,,298.77968419999524,298.78474239999923,298.78474239999923,298.9861976999964,299.3980548999971,3,1,0.6076186999998754,None,299.3988568999994,299.40583389999665,299.40583389999665,299.61112180000055,299.81990469999437,299.81396870000026,299.8140188999969,299.81990469999437,300.5141805999956,,,,,,,,,,,,,,,,,,,,,,,,,,,,,,,,,,,,,,,,,,,,,,,,,,,,,,,,,,,,,,,sub105,motor,2,0,2024-08-08_10h03.07.220,ASRT_motor,2023.2.3,142.91512556168342,2024-08-08 10h03.47.724943 +0800,
,1,90,2,2,red,sequences/sub105_practice_sequence_00.csv,,,,,,,,,,,0,0,0,0,0,56,56,61,,,,,,,,,,,,,,,,,,,,,300.52226879999944,,,,,,,,,,,,,300.5148670999988,300.52226879999944,300.52226879999944,300.7221036999981,301.0953296000007,2,1,0.5681230999980471,None,301.0963107999996,301.1031229,301.1031229,301.3052271999986,301.51393839999946,301.50782179999806,301.50785319999704,301.51393839999946,302.20815259999654,,,,,,,,,,,,,,,,,,,,,,,,,,,,,,,,,,,,,,,,,,,,,,,,,,,,,,,,,,,,,,,sub105,motor,2,0,2024-08-08_10h03.07.220,ASRT_motor,2023.2.3,142.91512556168342,2024-08-08 10h03.47.724943 +0800,
,2,180,3,1,red,sequences/sub105_practice_sequence_00.csv,,,,,,,,,,,0,0,0,0,0,57,57,73,,,,,,,,,,,,,,,,,,,,,302.2154415999976,,,,,,,,,,,,,302.20872399999644,302.2154415999976,302.2154415999976,302.41649649999454,302.80887309999525,1,1,0.5871396000002278,None,302.8096323999998,302.8167914000005,302.8167914000005,303.02251830000023,303.22878769999807,303.2234985999967,303.22354939999786,303.22878769999807,303.9241821999967,,,,,,,,,,,,,,,,,,,,,,,,,,,,,,,,,,,,,,,,,,,,,,,,,,,,,,,,,,,,,,,sub105,motor,2,0,2024-08-08_10h03.07.220,ASRT_motor,2023.2.3,142.91512556168342,2024-08-08 10h03.47.724943 +0800,
,2,180,3,1,red,sequences/sub105_practice_sequence_00.csv,,,,,,,,,,,0,0,0,0,0,58,58,9,,,,,,,,,,,,,,,,,,,,,303.9340408999997,,,,,,,,,,,,,303.9249128999945,303.9340408999997,303.9340408999997,304.1319094999999,304.5149622999961,1,1,0.5742781999942963,None,304.51574869999604,304.52137989999756,304.52137989999756,304.72928110000066,304.9372151999996,304.9314768999975,304.9315095999991,304.9372151999996,305.63247079999564,,,,,,,,,,,,,,,,,,,,,,,,,,,,,,,,,,,,,,,,,,,,,,,,,,,,,,,,,,,,,,,sub105,motor,2,0,2024-08-08_10h03.07.220,ASRT_motor,2023.2.3,142.91512556168342,2024-08-08 10h03.47.724943 +0800,
,2,180,3,1,red,sequences/sub105_practice_sequence_00.csv,,,,,,,,,,,0,0,0,0,0,59,59,41,,,,,,,,,,,,,,,,,,,,,305.64411989999644,,,,,,,,,,,,,305.6335686999955,305.64411989999644,305.64411989999644,305.8477152999985,306.1493249999985,1,1,0.5013007000015932,None,306.1501389999976,306.15707769999426,306.15707769999426,306.36057649999566,306.569350400001,306.5632587,306.56329800000094,306.569350400001,307.2635201000012,,,,,,,,,,,,,,,,,,,,,,,,,,,,,,,,,,,,,,,,,,,,,,,,,,,,,,,,,,,,,,,sub105,motor,2,0,2024-08-08_10h03.07.220,ASRT_motor,2023.2.3,142.91512556168342,2024-08-08 10h03.47.724943 +0800,
,3,270,0,4,red,sequences/sub105_practice_sequence_00.csv,,,,,,,,,,,0,0,0,0,0,60,60,6,,,,,,,,,,,,,,,,,,,,,307.2704736000014,,,,,,,,,,,,,307.2640656000003,307.2704736000014,307.2704736000014,307.4726154999953,307.78657920000114,4,1,0.5111295000024256,None,307.7872481999948,307.79482930000086,307.79482930000086,307.9995435999954,308.20781819999684,308.20247019999806,308.20251629999984,308.20781819999684,308.90350529999705,308.90951230000064,,,,,,,,,,,,,,,,,,,,,,,,,,,,,,,,,,,,,,,,,,,,,,,,,,,,,,,,,,,,,,sub105,motor,2,0,2024-08-08_10h03.07.220,ASRT_motor,2023.2.3,142.91512556168342,2024-08-08 10h03.47.724943 +0800,
,1,90,2,2,red,sequences/sub105_practice_sequence_00.csv,,,,,,,,,,,0,0,0,0,0,61,61,40,,,,,,,,,,,,,,,,,,,,,308.90951230000064,,,,,,,,,,,,,308.90414159999636,308.90951230000064,308.90951230000064,309.1108131000001,309.55751299999974,2,1,0.6438548999940394,None,309.55828859999747,309.56500529999903,309.56500529999903,309.7704898999946,309.97899389999657,309.9729038000005,309.97294529999635,309.97899389999657,310.6735931000003,,,,,,,,,,,,,,,,,,,,,,,,,,,,,,,,,,,,,,,,,,,,,,,,,,,,,,,,,,,,,,,sub105,motor,2,0,2024-08-08_10h03.07.220,ASRT_motor,2023.2.3,142.91512556168342,2024-08-08 10h03.47.724943 +0800,
,0,0,1,3,red,sequences/sub105_practice_sequence_00.csv,,,,,,,,,,,0,0,0,0,0,62,62,2,,,,,,,,,,,,,,,,,,,,,310.6822144999969,,,,,,,,,,,,,310.6745383999951,310.6822144999969,310.6822144999969,310.8819278999945,311.37456999999995,3,1,0.6862541999944369,None,311.3756649999996,311.3833945000006,311.3833945000006,311.58279129999573,311.7909378999975,311.7850504999951,311.78508979999606,311.7909378999975,312.4860964999971,,,,,,,,,,,,,,,,,,,,,,,,,,,,,,,,,,,,,,,,,,,,,,,,,,,,,,,,,,,,,,,sub105,motor,2,0,2024-08-08_10h03.07.220,ASRT_motor,2023.2.3,142.91512556168342,2024-08-08 10h03.47.724943 +0800,
,0,0,1,3,red,sequences/sub105_practice_sequence_00.csv,,,,,,,,,,,0,0,0,0,0,63,63,76,,,,,,,,,,,,,,,,,,,,,312.4925648999997,,,,,,,,,,,,,312.4867116999958,312.4925648999997,312.4925648999997,312.6948529000001,313.0526542000007,3,1,0.550925700001244,None,313.05347769999935,313.0605418999985,313.0605418999985,313.26336009999795,313.47181999999884,313.46589519999543,313.4659580000007,313.47181999999884,314.166592900001,,,,,,,,,,,,,,,,,,,,,,,,,,,,,,,,,,,,,,,,,,,,,,,,,,,,,,,,,,,,,,,sub105,motor,2,0,2024-08-08_10h03.07.220,ASRT_motor,2023.2.3,142.91512556168342,2024-08-08 10h03.47.724943 +0800,
,1,90,2,2,red,sequences/sub105_practice_sequence_00.csv,,,,,,,,,,,0,0,0,0,0,64,64,45,,,,,,,,,,,,,,,,,,,,,314.1740355000002,,,,,,,,,,,,,314.1674866999965,314.1740355000002,314.1740355000002,314.3747954999999,314.80146819999936,2,1,0.6204964000062319,None,314.8022778000013,314.8103065999967,314.8103065999967,315.01894309999625,315.2218484999976,315.21643209999456,315.21647369999846,315.2218484999976,315.916793999997,,,,,,,,,,,,,,,,,,,,,,,,,,,,,,,,,,,,,,,,,,,,,,,,,,,,,,,,,,,,,,,sub105,motor,2,0,2024-08-08_10h03.07.220,ASRT_motor,2023.2.3,142.91512556168342,2024-08-08 10h03.47.724943 +0800,
,2,180,3,1,red,sequences/sub105_practice_sequence_00.csv,,,,,,,,,,,0,0,0,0,0,65,65,25,,,,,,,,,,,,,,,,,,,,,315.92301569999836,,,,,,,,,,,,,315.91739439999947,315.92301569999836,315.92301569999836,316.124573699999,316.4258125999986,1,1,0.49730840000120224,None,316.4267043,316.43434709999565,316.43434709999565,316.63854799999535,316.8466064999957,316.84044309999445,316.84047350000037,316.8466064999957,317.54207669999596,,,,,,,,,,,,,,,,,,,,,,,,,,,,,,,,,,,,,,,,,,,,,,,,,,,,,,,,,,,,,,,sub105,motor,2,0,2024-08-08_10h03.07.220,ASRT_motor,2023.2.3,142.91512556168342,2024-08-08 10h03.47.724943 +0800,
,0,0,1,3,red,sequences/sub105_practice_sequence_00.csv,,,,,,,,,,,0,0,0,0,0,66,66,36,,,,,,,,,,,,,,,,,,,,,317.55002439999953,,,,,,,,,,,,,317.5427792999981,317.55002439999953,317.55002439999953,317.7495307999998,318.1757049000007,3,1,0.6183548999979394,None,318.1763757999943,318.1843458000003,318.1843458000003,318.3881403999985,318.5970745000013,318.5908374999999,318.5908783999985,318.5970745000013,319.291461599998,,,,,,,,,,,,,,,,,,,,,,,,,,,,,,,,,,,,,,,,,,,,,,,,,,,,,,,,,,,,,,,sub105,motor,2,0,2024-08-08_10h03.07.220,ASRT_motor,2023.2.3,142.91512556168342,2024-08-08 10h03.47.724943 +0800,
,0,0,1,3,red,sequences/sub105_practice_sequence_00.csv,,,,,,,,,,,0,0,0,0,0,67,67,12,,,,,,,,,,,,,,,,,,,,,319.30041869999695,,,,,,,,,,,,,319.2922510999997,319.30041869999695,319.30041869999695,319.5000338999962,319.76672210000106,3,1,0.4634529999966617,None,319.76745500000106,319.7750853999969,319.7750853999969,319.9783989999996,320.1869299999962,320.18183000000136,320.1818812999991,320.1869299999962,320.8830527999962,,,,,,,,,,,,,,,,,,,,,,,,,,,,,,,,,,,,,,,,,,,,,,,,,,,,,,,,,,,,,,,sub105,motor,2,0,2024-08-08_10h03.07.220,ASRT_motor,2023.2.3,142.91512556168342,2024-08-08 10h03.47.724943 +0800,
,1,90,2,2,red,sequences/sub105_practice_sequence_00.csv,,,,,,,,,,,0,0,0,0,0,68,68,37,,,,,,,,,,,,,,,,,,,,,320.88955619999615,,,,,,,,,,,,,320.8838248999964,320.88955619999615,320.88955619999615,321.0902133999989,321.5856124999991,2,1,0.6899345000056201,None,321.5864175999959,321.59582149999915,321.59582149999915,321.79816919999575,322.00600459999987,322.0008155999967,322.0008506000013,322.00600459999987,322.7012423999986,,,,,,,,,,,,,,,,,,,,,,,,,,,,,,,,,,,,,,,,,,,,,,,,,,,,,,,,,,,,,,,sub105,motor,2,0,2024-08-08_10h03.07.220,ASRT_motor,2023.2.3,142.91512556168342,2024-08-08 10h03.47.724943 +0800,
,3,270,0,4,red,sequences/sub105_practice_sequence_00.csv,,,,,,,,,,,0,0,0,0,0,69,69,67,,,,,,,,,,,,,,,,,,,,,322.70844639999996,,,,,,,,,,,,,322.7018967999975,322.70844639999996,322.70844639999996,322.9092210999952,323.2370796999967,4,1,0.5220016999955988,None,323.237741799996,323.24335289999726,323.24335289999726,323.4510205999977,323.65904189999856,323.65352580000035,323.6536180999974,323.65904189999856,324.35384579999663,,,,,,,,,,,,,,,,,,,,,,,,,,,,,,,,,,,,,,,,,,,,,,,,,,,,,,,,,,,,,,,sub105,motor,2,0,2024-08-08_10h03.07.220,ASRT_motor,2023.2.3,142.91512556168342,2024-08-08 10h03.47.724943 +0800,
,1,90,2,2,red,sequences/sub105_practice_sequence_00.csv,,,,,,,,,,,0,0,0,0,0,70,70,70,,,,,,,,,,,,,,,,,,,,,324.36157079999975,,,,,,,,,,,,,324.35455179999553,324.36157079999975,324.36157079999975,324.56207390000054,324.9597431000002,2,1,0.5921776999966823,None,324.9608395999967,324.9683498000013,324.9683498000013,325.1730735999954,325.3813383000015,325.37571889999526,325.3757687999969,325.3813383000015,326.0762142999956,,,,,,,,,,,,,,,,,,,,,,,,,,,,,,,,,,,,,,,,,,,,,,,,,,,,,,,,,,,,,,,sub105,motor,2,0,2024-08-08_10h03.07.220,ASRT_motor,2023.2.3,142.91512556168342,2024-08-08 10h03.47.724943 +0800,
,2,180,3,1,red,sequences/sub105_practice_sequence_00.csv,,,,,,,,,,,0,0,0,0,0,71,71,65,,,,,,,,,,,,,,,,,,,,,326.08417439999903,,,,,,,,,,,,,326.0768700999979,326.08417439999903,326.08417439999903,326.2842168999996,326.62004539999907,1,1,0.5290497000023606,None,326.62109499999497,326.6288213000007,326.6288213000007,326.83332069999597,327.04125029999705,327.03502489999664,327.0350710999992,327.04125029999705,327.73597479999444,,,,,,,,,,,,,,,,,,,,,,,,,,,,,,,,,,,,,,,,,,,,,,,,,,,,,,,,,,,,,,,sub105,motor,2,0,2024-08-08_10h03.07.220,ASRT_motor,2023.2.3,142.91512556168342,2024-08-08 10h03.47.724943 +0800,
,1,90,2,2,red,sequences/sub105_practice_sequence_00.csv,,,,,,,,,,,0,0,0,0,0,72,72,18,,,,,,,,,,,,,,,,,,,,,327.74555809999583,,,,,,,,,,,,,327.7366944999958,327.74555809999583,327.74555809999583,327.95308790000126,328.73576599999797,None,0,,,328.7363578000004,328.7468450000015,328.7468450000015,328.9506246999954,329.158846899998,329.15296390000003,329.15300639999623,329.158846899998,329.8539512999996,,,,,,,,,,,,,,,,,,,,,,,,,,,,,,,,,,,,,,,,,,,,,,,,,,,,,,,,,,,,,,,sub105,motor,2,0,2024-08-08_10h03.07.220,ASRT_motor,2023.2.3,142.91512556168342,2024-08-08 10h03.47.724943 +0800,
,1,90,2,2,red,sequences/sub105_practice_sequence_00.csv,,,,,,,,,,,0,0,0,0,0,73,73,53,,,,,,,,,,,,,,,,,,,,,329.86167510000087,,,,,,,,,,,,,329.8547619999954,329.86167510000087,329.86167510000087,330.06216929999937,330.4323996999956,2,1,0.5668659000002663,None,330.4330734999967,330.4398743999991,330.4398743999991,330.64513140000054,330.8536269999968,330.84853160000057,330.8485905999987,330.8536269999968,331.5514359999943,,,,,,,,,,,,,,,,,,,,,,,,,,,,,,,,,,,,,,,,,,,,,,,,,,,,,,,,,,,,,,,sub105,motor,2,0,2024-08-08_10h03.07.220,ASRT_motor,2023.2.3,142.91512556168342,2024-08-08 10h03.47.724943 +0800,
,1,90,2,2,red,sequences/sub105_practice_sequence_00.csv,,,,,,,,,,,0,0,0,0,0,74,74,38,,,,,,,,,,,,,,,,,,,,,331.5590363999945,,,,,,,,,,,,,331.55210319999605,331.5590363999945,331.5590363999945,331.763420999996,332.09166299999924,2,1,0.5257324999984121,None,332.09238539999933,332.0980707999988,332.0980707999988,332.3045076999988,332.5128626000005,332.50758700000006,332.5076282999944,332.5128626000005,333.20856829999684,,,,,,,,,,,,,,,,,,,,,,,,,,,,,,,,,,,,,,,,,,,,,,,,,,,,,,,,,,,,,,,sub105,motor,2,0,2024-08-08_10h03.07.220,ASRT_motor,2023.2.3,142.91512556168342,2024-08-08 10h03.47.724943 +0800,
