initial_random_seq_files,orientation_index,orientation_degrees,correct_answer_index,correct_answer_direction,arrow_color,practice_seq_files,learning_seq_files,motor_testing_seq_files,init_random_block.thisRepN,init_random_block.thisTrialN,init_random_block.thisN,init_random_block.thisIndex,init_random_trials.thisRepN,init_random_trials.thisTrialN,init_random_trials.thisN,init_random_trials.thisIndex,practice_blocks.thisRepN,practice_blocks.thisTrialN,practice_blocks.thisN,practice_blocks.thisIndex,practice_trials.thisRepN,practice_trials.thisTrialN,practice_trials.thisN,practice_trials.thisIndex,learning_trials.thisRepN,learning_trials.thisTrialN,learning_trials.thisN,learning_trials.thisIndex,learning_loop.thisRepN,learning_loop.thisTrialN,learning_loop.thisN,learning_loop.thisIndex,trials.thisRepN,trials.thisTrialN,trials.thisN,trials.thisIndex,motor_testing_trials.thisRepN,motor_testing_trials.thisTrialN,motor_testing_trials.thisN,motor_testing_trials.thisIndex,motor_testing_loop.thisRepN,motor_testing_loop.thisTrialN,motor_testing_loop.thisN,motor_testing_loop.thisIndex,thisRow.t,notes,welcomescreen.started,spaceship.started,welcometext.started,welcome_end.started,welcomescreen.stopped,welcome_end.keys,welcome_end.rt,welcome_end.duration,pre_section.started,fixation_init.started,pre_section.stopped,trial.started,arrowhead.started,key_resp.started,arrowhead.stopped,trial.stopped,key_resp.keys,key_resp.corr,key_resp.rt,key_resp.duration,fixation_feedback.started,cross.started,feedback_text.started,cross.stopped,feedback_text.stopped,fixation_feedback.stopped,RSI.started,text_2.started,text_2.stopped,RSI.stopped,key_resp.stopped,post_section.started,feedback_post_section.started,key_resp_4.started,post_section.stopped,key_resp_4.keys,key_resp_4.rt,key_resp_4.duration,pratice_instruction.started,spaceship_rotated.started,rotation_instruction.started,key_resp_2.started,pratice_instruction.stopped,key_resp_2.keys,key_resp_2.rt,key_resp_2.duration,fixation_init.stopped,learning_instruction.started,spaceship_rotated01.started,rotation_instruction01.started,key_resp_02.started,learning_instruction.stopped,key_resp_02.keys,key_resp_02.rt,key_resp_02.duration,seqreport_instruction.started,seqreport_instruction_text.started,seqreport_instruction_key.started,seqreport_instruction_text.stopped,seqreport_instruction.stopped,seqreport_instruction_key.keys,seqreport_instruction_key.rt,seqreport_instruction_key.duration,seqreport.started,seq_report_key.started,seqreport.stopped,seq_report_key.keys,seq_report_key.rt,seq_report_key.duration,seqarrow.started,arrow_report.started,seqarrow.stopped,arrow_report.stopped,feedback_post_section.stopped,key_resp_4.stopped,motor_testing_instruction.started,spaceship3.started,motor_testing_instruction_text.started,key_resp_3.started,motor_testing_instruction.stopped,key_resp_3.keys,key_resp_3.rt,key_resp_3.duration,fixation.started,cross_2.started,cross_2.stopped,fixation.stopped,thankyouscreen.started,text.started,key_resp_6.started,thankyouscreen.stopped,key_resp_6.keys,key_resp_6.rt,key_resp_6.duration,participant,learning_type,seqID,debug,date,expName,psychopyVersion,frameRate,
,,,,,,,,,,,,,,,,,,,,,,,,,,,,,,,,,,,,,,,,,,,,,,,0.010742200014647096,0.021244000003207475,0.021244000003207475,0.021244000003207475,7.448364400013816,space,7.406631699996069,None,,,,,,,,,,,,,,,,,,,,,,,,,,,,,,,,,,,,,,,,,,,,,,,,,,,,,,,,,,,,,,,,,,,,,,,,,,,,,,,,,,,,,,,test002,motor,1,0,2024-07-30_21h02.34.136,ASRT_percept,2023.2.3,59.145034866442565,
sequences/_initial_random.csv,2,180,2,2,red,,,,0,0,0,0,0,0,0,0,,,,,,,,,,,,,,,,,,,,,,,,,,,,,8.52804110001307,,,,,,,,,,7.471027699997649,7.478173899988178,8.460783199989237,8.51870479999343,8.52804110001307,8.52804110001307,8.740222299995366,9.157549800002016,2,1,0.6163818000350147,None,9.158063200011384,9.17307580000488,9.17307580000488,9.674390800006222,10.174394200032111,10.161744299985003,10.161786300013773,10.174394200032111,10.875076700001955,10.859220299986191,,,,,,,,,,,,,,,,,,,,,,,,,,,,,,,,,,,,,,,,,,,,,,,,,,,,,,,,,,,,,,,,,test002,motor,1,0,2024-07-30_21h02.34.136,ASRT_percept,2023.2.3,59.145034866442565,
sequences/_initial_random.csv,2,180,2,2,red,,,,0,0,0,0,0,1,1,1,,,,,,,,,,,,,,,,,,,,,,,,,,,,,10.875076700001955,,,,,,,,,,,,,10.86045410000952,10.875076700001955,10.875076700001955,11.091056699980982,11.514699799998198,2,1,0.6302990000112914,None,11.5154263000004,11.531776599993464,11.531776599993464,12.023776700021699,12.523287100018933,12.509142499999143,12.50930029997835,12.523287100018933,13.22209350002231,13.207041900022887,,,,,,,,,,,,,,,,,,,,,,,,,,,,,,,,,,,,,,,,,,,,,,,,,,,,,,,,,,,,,,,,,test002,motor,1,0,2024-07-30_21h02.34.136,ASRT_percept,2023.2.3,59.145034866442565,
sequences/_initial_random.csv,2,180,2,2,red,,,,0,0,0,0,0,2,2,2,,,,,,,,,,,,,,,,,,,,,,,,,,,,,13.22209350002231,,,,,,,,,,,,,13.208226100017782,13.22209350002231,13.22209350002231,13.422158500005025,13.760606500029098,2,1,0.5280135999782942,None,13.76166670001112,13.771606700029224,13.771606700029224,14.271994400012773,14.772410299978219,14.757456900028046,14.757623700017575,14.772410299978219,15.472917600010987,15.458923100028187,,,,,,,,,,,,,,,,,,,,,,,,,,,,,,,,,,,,,,,,,,,,,,,,,,,,,,,,,,,,,,,,,test002,motor,1,0,2024-07-30_21h02.34.136,ASRT_percept,2023.2.3,59.145034866442565,
sequences/_initial_random.csv,3,270,3,1,red,,,,0,0,0,0,0,3,3,3,,,,,,,,,,,,,,,,,,,,,,,,,,,,,15.472917600010987,,,,,,,,,,,,,15.46074830001453,15.472917600010987,15.472917600010987,15.689830299990717,15.809124100022018,1,1,0.323815600015223,None,15.809782300028019,15.821570999978576,15.821570999978576,16.321987100003753,16.821843300014734,16.807627299975138,16.807722600002307,16.821843300014734,17.524178199993912,17.50808890000917,,,,,,,,,,,,,,,,,,,,,,,,,,,,,,,,,,,,,,,,,,,,,,,,,,,,,,,,,,,,,,,,,test002,motor,1,0,2024-07-30_21h02.34.136,ASRT_percept,2023.2.3,59.145034866442565,
sequences/_initial_random.csv,0,0,0,4,red,,,,0,0,0,0,0,4,4,4,,,,,,,,,,,,,,,,,,,,,,,,,,,,,17.524178199993912,,,,,,,,,,,,,17.509802000015043,17.524178199993912,17.524178199993912,17.73807249998208,17.894632400013506,4,1,0.3626466999994591,None,17.895452500029933,17.91834109998308,17.91834109998308,18.404846100020222,18.90541339997435,18.89170620002551,18.891787500004284,18.90541339997435,19.604311499977484,19.591244500014,,,,,,,,,,,,,,,,,,,,,,,,,,,,,,,,,,,,,,,,,,,,,,,,,,,,,,,,,,,,,,,,,test002,motor,1,0,2024-07-30_21h02.34.136,ASRT_percept,2023.2.3,59.145034866442565,
sequences/_initial_random.csv,0,0,0,4,red,,,,0,0,0,0,0,5,5,5,,,,,,,,,,,,,,,,,,,,,,,,,,,,,19.604311499977484,,,,,,,,,,,,,19.592196999990847,19.604311499977484,19.604311499977484,19.804437200014945,20.009649400017224,1,0,0.3925904000061564,None,20.01049439999042,20.028680099989288,20.028680099989288,20.521482600015588,21.02053729997715,21.006704800005537,21.006847299984656,21.02053729997715,21.721045100013725,21.70606629998656,,,,,,,,,,,,,,,,,,,,,,,,,,,,,,,,,,,,,,,,,,,,,,,,,,,,,,,,,,,,,,,,,test002,motor,1,0,2024-07-30_21h02.34.136,ASRT_percept,2023.2.3,59.145034866442565,
sequences/_initial_random.csv,0,0,0,4,red,,,,0,0,0,0,0,6,6,6,,,,,,,,,,,,,,,,,,,,,,,,,,,,,21.721045100013725,,,,,,,,,,,,,21.707981600018684,21.721045100013725,21.721045100013725,21.92068580002524,22.12649120000424,4,1,0.39558900002157316,None,22.12843789998442,22.13853489997564,22.13853489997564,22.636839899991173,23.137887499993667,23.12162500002887,23.12170950003201,23.137887499993667,,23.83797809999669,,,,,,,,,,,,,,,,,,,,,,,,,,,,,,,,,,,,,,,,,,,,,,,,,,,,,,,,,,,,,,,,,test002,motor,1,0,2024-07-30_21h02.34.136,ASRT_percept,2023.2.3,59.145034866442565,
sequences/_initial_random.csv,3,270,3,1,red,,,,0,0,0,0,0,7,7,7,,,,,,,,,,,,,,,,,,,,,,,,,,,,,23.853204599989112,,,,,,,,,,,,,23.839420299977064,23.853204599989112,23.853204599989112,24.053392499976326,24.278255700017326,1,1,0.40477679995819926,None,24.280330599984154,24.2922451000195,24.2922451000195,24.786767299985513,25.286773999978323,25.272526499989908,25.272670299978927,25.286773999978323,25.987748500017915,25.972433099988848,,,,,,,,,,,,,,,,,,,,,,,,,,,,,,,,,,,,,,,,,,,,,,,,,,,,,,,,,,,,,,,,,test002,motor,1,0,2024-07-30_21h02.34.136,ASRT_percept,2023.2.3,59.145034866442565,
sequences/_initial_random.csv,2,180,2,2,red,,,,0,0,0,0,0,8,8,8,,,,,,,,,,,,,,,,,,,,,,,,,,,,,25.987748500017915,,,,,,,,,,,,,25.9736644999939,25.987748500017915,25.987748500017915,26.20202969998354,26.45790829998441,1,0,0.4604055999661796,None,26.459086499991827,26.471969600010198,26.471969600010198,26.968787999998312,27.46915269998135,27.454288100008853,27.45436959998915,27.46915269998135,28.17080890003126,28.153720300004352,,,,,,,,,,,,,,,,,,,,,,,,,,,,,,,,,,,,,,,,,,,,,,,,,,,,,,,,,,,,,,,,,test002,motor,1,0,2024-07-30_21h02.34.136,ASRT_percept,2023.2.3,59.145034866442565,
sequences/_initial_random.csv,3,270,3,1,red,,,,0,0,0,0,0,9,9,9,,,,,,,,,,,,,,,,,,,,,,,,,,,,,28.17080890003126,,,,,,,,,,,,,28.154866700002458,28.17080890003126,28.17080890003126,28.38517470000079,28.63967900001444,1,1,0.45417430001543835,None,28.640749200014398,28.651285799976904,28.651285799976904,29.149825300031807,29.651568899978884,29.6373485000222,29.637383299996145,29.651568899978884,30.351171699992847,30.337111599976197,,,,,,,,,,,,,,,,,,,,,,,,,,,,,,,,,,,,,,,,,,,,,,,,,,,,,,,,,,,,,,,,,test002,motor,1,0,2024-07-30_21h02.34.136,ASRT_percept,2023.2.3,59.145034866442565,
sequences/_initial_random.csv,0,0,0,4,red,,,,0,0,0,0,0,10,10,10,,,,,,,,,,,,,,,,,,,,,,,,,,,,,30.351171699992847,,,,,,,,,,,,,30.339524000009988,30.351171699992847,30.351171699992847,30.55141110002296,30.7730119000189,4,1,0.4063869999954477,None,30.77464770001825,30.783413400000427,30.783413400000427,31.28421830001753,31.785553800000343,31.771372399991378,31.77147179999156,31.785553800000343,,32.484339600021485,,,,,,,,,,,,,,,,,,,,,,,,,,,,,,,,,,,,,,,,,,,,,,,,,,,,,,,,,,,,,,,,,test002,motor,1,0,2024-07-30_21h02.34.136,ASRT_percept,2023.2.3,59.145034866442565,
sequences/_initial_random.csv,3,270,3,1,red,,,,0,0,0,0,0,11,11,11,,,,,,,,,,,,,,,,,,,,,,,,,,,,,32.50046609999845,,,,,,,,,,,,,32.48678410000866,32.50046609999845,32.50046609999845,32.6995537999901,32.90474820003146,1,1,0.39338030002545565,None,32.90541980002308,32.91800850001164,32.91800850001164,33.4172676000162,33.916694100014865,33.902413800009526,33.90246260003187,33.916694100014865,34.61650920001557,34.604294800024945,,,,,,,,,,,,,,,,,,,,,,,,,,,,,,,,,,,,,,,,,,,,,,,,,,,,,,,,,,,,,,,,,test002,motor,1,0,2024-07-30_21h02.34.136,ASRT_percept,2023.2.3,59.145034866442565,
sequences/_initial_random.csv,2,180,2,2,red,,,,0,0,0,0,0,12,12,12,,,,,,,,,,,,,,,,,,,,,,,,,,,,,34.61650920001557,,,,,,,,,,,,,34.60493410000345,34.61650920001557,34.61650920001557,34.816799000022,35.10554090002552,1,0,0.47357370000099763,None,35.108302999986336,35.14267289999407,35.14267289999407,35.61683160002576,36.11671849997947,36.101702800020576,36.101795400027186,36.11671849997947,36.81967860000441,36.803864900022745,,,,,,,,,,,,,,,,,,,,,,,,,,,,,,,,,,,,,,,,,,,,,,,,,,,,,,,,,,,,,,,,,test002,motor,1,0,2024-07-30_21h02.34.136,ASRT_percept,2023.2.3,59.145034866442565,
sequences/_initial_random.csv,2,180,2,2,red,,,,0,0,0,0,0,13,13,13,,,,,,,,,,,,,,,,,,,,,,,,,,,,,36.81967860000441,,,,,,,,,,,,,36.80527950002579,36.81967860000441,36.81967860000441,37.03231969999615,37.521678199991584,2,1,0.6883099999977276,None,37.523074300028384,37.53305319999345,37.53305319999345,38.03190360002918,38.53391790000023,38.51919189997716,38.51932120003039,38.53391790000023,,39.23140470002545,,,,,,,,,,,,,,,,,,,,,,,,,,,,,,,,,,,,,,,,,,,,,,,,,,,,,,,,,,,,,,,,,test002,motor,1,0,2024-07-30_21h02.34.136,ASRT_percept,2023.2.3,59.145034866442565,
sequences/_initial_random.csv,2,180,2,2,red,,,,0,0,0,0,0,14,14,14,,,,,,,,,,,,,,,,,,,,,,,,,,,,,39.2474275000277,,,,,,,,,,,,,39.23296490003122,39.2474275000277,39.2474275000277,39.44691579998471,39.717514600022696,1,0,0.4539919000235386,None,39.717993500002194,39.731765099975746,39.731765099975746,40.23072350001894,40.73283320001792,40.71834850002779,40.71847369999159,40.73283320001792,,41.43165689997841,,,,,,,,,,,,,,,,,,,,,,,,,,,,,,,,,,,,,,,,,,,,,,,,,,,,,,,,,,,,,,,,,test002,motor,1,0,2024-07-30_21h02.34.136,ASRT_percept,2023.2.3,59.145034866442565,
sequences/_initial_random.csv,1,90,1,3,red,,,,0,0,0,0,0,15,15,15,,,,,,,,,,,,,,,,,,,,,,,,,,,,,41.45021959999576,,,,,,,,,,,,,41.433096799999475,41.45021959999576,41.45021959999576,41.664200100000016,41.98610259999987,2,0,0.5228202000143938,None,41.98761369998101,42.00674949999666,42.00674949999666,42.49721699999645,42.996973200002685,42.9829251000192,42.982974599988665,42.996973200002685,43.69581130001461,43.680515600019135,,,,,,,,,,,,,,,,,,,,,,,,,,,,,,,,,,,,,,,,,,,,,,,,,,,,,,,,,,,,,,,,,test002,motor,1,0,2024-07-30_21h02.34.136,ASRT_percept,2023.2.3,59.145034866442565,
sequences/_initial_random.csv,0,0,0,4,red,,,,0,0,0,0,0,16,16,16,,,,,,,,,,,,,,,,,,,,,,,,,,,,,43.69581130001461,,,,,,,,,,,,,43.680887900001835,43.69581130001461,43.69581130001461,43.897214199998416,44.08307380002225,4,1,0.3758037000079639,None,44.083730400016066,44.096557700017,44.096557700017,44.596831600007135,45.09585129999323,45.081157899985556,45.08122250001179,45.09585129999323,45.79531030001817,45.78123530000448,,,,,,,,,,,,,,,,,,,,,,,,,,,,,,,,,,,,,,,,,,,,,,,,,,,,,,,,,,,,,,,,,test002,motor,1,0,2024-07-30_21h02.34.136,ASRT_percept,2023.2.3,59.145034866442565,
sequences/_initial_random.csv,1,90,1,3,red,,,,0,0,0,0,0,17,17,17,,,,,,,,,,,,,,,,,,,,,,,,,,,,,45.79531030001817,,,,,,,,,,,,,45.78353000001516,45.79531030001817,45.79531030001817,45.99551999999676,46.23481090000132,3,1,0.4282134000095539,None,46.23751419998007,46.25399529997958,46.25399529997958,46.745979300001636,47.24558139999863,47.23193760000868,47.23206280003069,47.24558139999863,47.945546499977354,47.93085649999557,,,,,,,,,,,,,,,,,,,,,,,,,,,,,,,,,,,,,,,,,,,,,,,,,,,,,,,,,,,,,,,,,test002,motor,1,0,2024-07-30_21h02.34.136,ASRT_percept,2023.2.3,59.145034866442565,
sequences/_initial_random.csv,0,0,0,4,red,,,,0,0,0,0,0,18,18,18,,,,,,,,,,,,,,,,,,,,,,,,,,,,,47.945546499977354,,,,,,,,,,,,,47.932617800019216,47.945546499977354,47.945546499977354,48.14615099999355,48.36652059998596,4,1,0.40982429997529835,None,48.36894650000613,48.37949479999952,48.37949479999952,48.87830570002552,49.3791346999933,49.36467540002195,49.364737800031435,49.3791346999933,,50.07842730003176,,,,,,,,,,,,,,,,,,,,,,,,,,,,,,,,,,,,,,,,,,,,,,,,,,,,,,,,,,,,,,,,,test002,motor,1,0,2024-07-30_21h02.34.136,ASRT_percept,2023.2.3,59.145034866442565,
sequences/_initial_random.csv,1,90,1,3,red,,,,0,0,0,0,0,19,19,19,,,,,,,,,,,,,,,,,,,,,,,,,,,,,50.094622100004926,,,,,,,,,,,,,50.080028800002765,50.094622100004926,50.094622100004926,50.295558999991044,50.537043899996206,3,1,0.4317663999972865,None,50.53950160002569,50.561309100012295,50.561309100012295,51.04413240001304,51.544644900015555,51.53056059998926,51.530604400031734,51.544644900015555,52.24521379999351,52.23134709999431,,,,,,,,,,,,,,,,,,,,,,,,,,,,,,,,,,,,,,,,,,,,,,,,,,,,,,,,,,,,,,,,,test002,motor,1,0,2024-07-30_21h02.34.136,ASRT_percept,2023.2.3,59.145034866442565,
sequences/_initial_random.csv,3,270,3,1,red,,,,0,0,0,0,0,20,20,20,,,,,,,,,,,,,,,,,,,,,,,,,,,,,52.24521379999351,,,,,,,,,,,,,52.23279540002113,52.24521379999351,52.24521379999351,52.44442880002316,52.632122999988496,1,1,0.3699612999917008,None,52.63453829998616,52.6473599000019,52.6473599000019,53.14299860002939,53.643874900008086,53.63011040003039,53.63019890000578,53.643874900008086,,54.344302400015295,,,,,,,,,,,,,,,,,,,,,,,,,,,,,,,,,,,,,,,,,,,,,,,,,,,,,,,,,,,,,,,,,test002,motor,1,0,2024-07-30_21h02.34.136,ASRT_percept,2023.2.3,59.145034866442565,
sequences/_initial_random.csv,1,90,1,3,red,,,,0,0,0,0,0,21,21,21,,,,,,,,,,,,,,,,,,,,,,,,,,,,,54.359056500019506,,,,,,,,,,,,,54.34560679999413,54.359056500019506,54.359056500019506,54.56029380002292,55.02010610001162,3,1,0.6496820000465959,None,55.02121999999508,55.04222730000038,55.04222730000038,55.526215700025205,56.02669050003169,56.01166900002863,56.01173820003169,56.02669050003169,56.725633200025186,56.712379099975806,,,,,,,,,,,,,,,,,,,,,,,,,,,,,,,,,,,,,,,,,,,,,,,,,,,,,,,,,,,,,,,,,test002,motor,1,0,2024-07-30_21h02.34.136,ASRT_percept,2023.2.3,59.145034866442565,
sequences/_initial_random.csv,1,90,1,3,red,,,,0,0,0,0,0,22,22,22,,,,,,,,,,,,,,,,,,,,,,,,,,,,,56.725633200025186,,,,,,,,,,,,,56.71397610002896,56.725633200025186,56.725633200025186,56.926867500005756,57.18143160000909,3,1,0.4425596999935806,None,57.18339319998631,57.195744700031355,57.195744700031355,57.69247880001785,58.192499199998565,58.1793332999805,58.17948280001292,58.192499199998565,58.89299409999512,58.876743300003,,,,,,,,,,,,,,,,,,,,,,,,,,,,,,,,,,,,,,,,,,,,,,,,,,,,,,,,,,,,,,,,,test002,motor,1,0,2024-07-30_21h02.34.136,ASRT_percept,2023.2.3,59.145034866442565,
sequences/_initial_random.csv,0,0,0,4,red,,,,0,0,0,0,0,23,23,23,,,,,,,,,,,,,,,,,,,,,,,,,,,,,58.89299409999512,,,,,,,,,,,,,58.877176699985284,58.89299409999512,58.89299409999512,59.09239599999273,59.32925210002577,4,1,0.4236328999977559,None,59.33069939998677,59.34182959998725,59.34182959998725,59.84169999998994,60.3415696999873,60.32679469999857,60.32683460001135,60.3415696999873,61.04397499997867,61.02644619997591,,,,,,,,,,,,,,,,,,,,,,,,,,,,,,,,,,,,,,,,,,,,,,,,,,,,,,,,,,,,,,,,,test002,motor,1,0,2024-07-30_21h02.34.136,ASRT_percept,2023.2.3,59.145034866442565,
sequences/_initial_random.csv,0,0,0,4,red,,,,0,0,0,0,0,24,24,24,,,,,,,,,,,,,,,,,,,,,,,,,,,,,61.04397499997867,,,,,,,,,,,,,61.02864839998074,61.04397499997867,61.04397499997867,61.25793770002201,61.49672619998455,4,1,0.4434324000030756,None,61.49795940000331,61.51078509999206,61.51078509999206,62.00751850003144,62.50788330001524,62.493229800020345,62.49331049999455,62.50788330001524,,63.20679610001389,,,,,,,,,,,,,,,,,,,,,,,,,,,,,,,,,,,,,,,,,,,,,,,,,,,,,,,,,,,,,,,,,test002,motor,1,0,2024-07-30_21h02.34.136,ASRT_percept,2023.2.3,59.145034866442565,
sequences/_initial_random.csv,2,180,2,2,red,,,,0,0,0,0,0,25,25,25,,,,,,,,,,,,,,,,,,,,,,,,,,,,,63.223074199981056,,,,,,,,,,,,,63.207933700003196,63.223074199981056,63.223074199981056,63.424273399985395,63.71301270002732,2,1,0.4742510999785736,None,63.71415000001434,63.72939819999738,63.72939819999738,64.22427519998746,64.72392620000755,64.70871879998595,64.70874199998798,64.72392620000755,,65.42350660002558,,,,,,,,,,,,,,,,,,,,,,,,,,,,,,,,,,,,,,,,,,,,,,,,,,,,,,,,,,,,,,,,,test002,motor,1,0,2024-07-30_21h02.34.136,ASRT_percept,2023.2.3,59.145034866442565,
sequences/_initial_random.csv,1,90,1,3,red,,,,0,0,0,0,0,26,26,26,,,,,,,,,,,,,,,,,,,,,,,,,,,,,65.44260160002159,,,,,,,,,,,,,65.4248972000205,65.44260160002159,65.44260160002159,65.65579639998032,65.87404820002848,3,1,0.41780049999943003,None,65.8748660000274,65.8887456000084,65.8887456000084,66.38922260003164,66.88962380000157,66.8758467999869,66.8759321999969,66.88962380000157,67.59624679997796,67.57765970000764,,,,,,,,,,,,,,,,,,,,,,,,,,,,,,,,,,,,,,,,,,,,,,,,,,,,,,,,,,,,,,,,,test002,motor,1,0,2024-07-30_21h02.34.136,ASRT_percept,2023.2.3,59.145034866442565,
sequences/_initial_random.csv,0,0,0,4,red,,,,0,0,0,0,0,27,27,27,,,,,,,,,,,,,,,,,,,,,,,,,,,,,67.59624679997796,,,,,,,,,,,,,67.57884239999112,67.59624679997796,67.59624679997796,67.80632490001153,67.98076449998189,4,1,0.3721398999914527,None,67.98374270001659,68.0038175000227,68.0038175000227,68.48929350002436,68.98936100001447,68.97556880000047,68.97567539999727,68.98936100001447,69.68862199998694,69.6744289000053,,,,,,,,,,,,,,,,,,,,,,,,,,,,,,,,,,,,,,,,,,,,,,,,,,,,,,,,,,,,,,,,,test002,motor,1,0,2024-07-30_21h02.34.136,ASRT_percept,2023.2.3,59.145034866442565,
sequences/_initial_random.csv,2,180,2,2,red,,,,0,0,0,0,0,28,28,28,,,,,,,,,,,,,,,,,,,,,,,,,,,,,69.68862199998694,,,,,,,,,,,,,69.67513920000056,69.68862199998694,69.68862199998694,69.88867529999698,70.22814189997735,2,1,0.5232144999899901,None,70.22922999999719,70.2431241000304,70.2431241000304,70.73845569998957,71.23806689999765,71.22303990001092,71.22314399998868,71.23806689999765,71.93816740001785,71.92438739998033,,,,,,,,,,,,,,,,,,,,,,,,,,,,,,,,,,,,,,,,,,,,,,,,,,,,,,,,,,,,,,,,,test002,motor,1,0,2024-07-30_21h02.34.136,ASRT_percept,2023.2.3,59.145034866442565,
sequences/_initial_random.csv,1,90,1,3,red,,,,0,0,0,0,0,29,29,29,,,,,,,,,,,,,,,,,,,,,,,,,,,,,71.93816740001785,,,,,,,,,,,,,71.92518830002518,71.93816740001785,71.93816740001785,72.1380204000161,72.35893550002947,3,1,0.40929909999249503,None,72.3603856000118,72.37240569997812,72.37240569997812,72.87096289999317,73.37005710002268,73.35414619999938,73.35419209999964,73.37005710002268,74.07305569999153,74.05663290002849,,,,,,,,,,,,,,,,,,,,,,,,,,,,,,,,,,,,,,,,,,,,,,,,,,,,,,,,,,,,,,,,,test002,motor,1,0,2024-07-30_21h02.34.136,ASRT_percept,2023.2.3,59.145034866442565,
sequences/_initial_random.csv,2,180,2,2,red,,,,0,0,0,0,0,30,30,30,,,,,,,,,,,,,,,,,,,,,,,,,,,,,74.07305569999153,,,,,,,,,,,,,74.05890399997588,74.07305569999153,74.07305569999153,74.28739170002518,74.50609079998685,2,1,0.4181100000278093,None,74.50744560000021,74.52029860002222,74.52029860002222,75.01966839999659,75.5199187999824,75.50575720000779,75.50583809998352,75.5199187999824,76.21964750002371,76.2057608999894,,,,,,,,,,,,,,,,,,,,,,,,,,,,,,,,,,,,,,,,,,,,,,,,,,,,,,,,,,,,,,,,,test002,motor,1,0,2024-07-30_21h02.34.136,ASRT_percept,2023.2.3,59.145034866442565,
sequences/_initial_random.csv,1,90,1,3,red,,,,0,0,0,0,0,31,31,31,,,,,,,,,,,,,,,,,,,,,,,,,,,,,76.21964750002371,,,,,,,,,,,,,76.20774979999987,76.21964750002371,76.21964750002371,76.42068989999825,76.64222989999689,3,1,0.4155441000475548,None,76.64322610001545,76.65211909997743,76.65211909997743,77.15241949999472,77.65318139997544,77.63885679998202,77.63894919998711,77.65318139997544,78.3534292000113,78.33757520001382,,,,,,,,,,,,,,,,,,,,,,,,,,,,,,,,,,,,,,,,,,,,,,,,,,,,,,,,,,,,,,,,,test002,motor,1,0,2024-07-30_21h02.34.136,ASRT_percept,2023.2.3,59.145034866442565,
sequences/_initial_random.csv,2,180,2,2,red,,,,0,0,0,0,0,32,32,32,,,,,,,,,,,,,,,,,,,,,,,,,,,,,78.3534292000113,,,,,,,,,,,,,78.33885150001151,78.3534292000113,78.3534292000113,78.55315549997613,78.89046630001394,2,1,0.5247892999905162,None,78.89200140000321,78.90303230000427,78.90303230000427,79.40195450000465,79.90239070000825,79.8886773000122,79.88875769998413,79.90239070000825,80.6117663999903,80.58905270003015,,,,,,,,,,,,,,,,,,,,,,,,,,,,,,,,,,,,,,,,,,,,,,,,,,,,,,,,,,,,,,,,,test002,motor,1,0,2024-07-30_21h02.34.136,ASRT_percept,2023.2.3,59.145034866442565,
sequences/_initial_random.csv,3,270,3,1,red,,,,0,0,0,0,0,33,33,33,,,,,,,,,,,,,,,,,,,,,,,,,,,,,80.6117663999903,,,,,,,,,,,,,80.59115739999106,80.6117663999903,80.6117663999903,80.81870160001563,81.00881839997601,1,1,0.379354799981229,None,81.01056750002317,81.03522319998592,81.03522319998592,81.51823019998847,82.01754420000361,82.0026808999828,82.00270050001564,82.01754420000361,82.71723260002909,82.70165280002402,,,,,,,,,,,,,,,,,,,,,,,,,,,,,,,,,,,,,,,,,,,,,,,,,,,,,,,,,,,,,,,,,test002,motor,1,0,2024-07-30_21h02.34.136,ASRT_percept,2023.2.3,59.145034866442565,
sequences/_initial_random.csv,1,90,1,3,red,,,,0,0,0,0,0,34,34,34,,,,,,,,,,,,,,,,,,,,,,,,,,,,,82.71723260002909,,,,,,,,,,,,,82.70204370003194,82.71723260002909,82.71723260002909,82.91759969998384,83.09183200000552,3,1,0.3626548000029288,None,83.09333070000866,83.11281379999127,83.11281379999127,83.60097899998073,84.10006089997478,84.0882865000167,84.0883711000206,84.10006089997478,84.80071149999276,84.78690050001023,,,,,,,,,,,,,,,,,,,,,,,,,,,,,,,,,,,,,,,,,,,,,,,,,,,,,,,,,,,,,,,,,test002,motor,1,0,2024-07-30_21h02.34.136,ASRT_percept,2023.2.3,59.145034866442565,
sequences/_initial_random.csv,0,0,0,4,red,,,,0,0,0,0,0,35,35,35,,,,,,,,,,,,,,,,,,,,,,,,,,,,,84.80071149999276,,,,,,,,,,,,,84.78803320002044,84.80071149999276,84.80071149999276,85.00066030002199,85.29130570002599,4,1,0.47858190000988543,None,85.2925314999884,85.31214410002576,85.31214410002576,85.79940060002264,86.30030180001631,86.28732699999819,86.28741180000361,86.30030180001631,86.9996339000063,86.98621459997958,,,,,,,,,,,,,,,,,,,,,,,,,,,,,,,,,,,,,,,,,,,,,,,,,,,,,,,,,,,,,,,,,test002,motor,1,0,2024-07-30_21h02.34.136,ASRT_percept,2023.2.3,59.145034866442565,
sequences/_initial_random.csv,3,270,3,1,red,,,,0,0,0,0,0,36,36,36,,,,,,,,,,,,,,,,,,,,,,,,,,,,,86.9996339000063,,,,,,,,,,,,,86.98721079999814,86.9996339000063,86.9996339000063,87.1993357000174,87.72521800000686,1,1,0.7170541999512352,None,87.72610470000654,87.73809719999554,87.73809719999554,88.23596949997591,88.73266650002915,88.71890279999934,88.71898399997735,88.73266650002915,89.43189770000754,89.41767579998123,,,,,,,,,,,,,,,,,,,,,,,,,,,,,,,,,,,,,,,,,,,,,,,,,,,,,,,,,,,,,,,,,test002,motor,1,0,2024-07-30_21h02.34.136,ASRT_percept,2023.2.3,59.145034866442565,
sequences/_initial_random.csv,0,0,0,4,red,,,,0,0,0,0,0,37,37,37,,,,,,,,,,,,,,,,,,,,,,,,,,,,,89.43189770000754,,,,,,,,,,,,,89.41953190002823,89.43189770000754,89.43189770000754,89.63417759997537,89.82228810002562,4,1,0.3756801000563428,None,89.82480920001399,89.8324865999748,89.8324865999748,90.33286860003136,90.83202520001214,90.81766350002727,90.81772380002076,90.83202520001214,91.53209639998386,91.51885900000343,,,,,,,,,,,,,,,,,,,,,,,,,,,,,,,,,,,,,,,,,,,,,,,,,,,,,,,,,,,,,,,,,test002,motor,1,0,2024-07-30_21h02.34.136,ASRT_percept,2023.2.3,59.145034866442565,
sequences/_initial_random.csv,3,270,3,1,red,,,,0,0,0,0,0,38,38,38,,,,,,,,,,,,,,,,,,,,,,,,,,,,,91.53209639998386,,,,,,,,,,,,,91.52035240002442,91.53209639998386,91.53209639998386,91.7320374000119,92.17366949998541,1,1,0.6277607000083663,None,92.17642490001163,92.19221930002095,92.19221930002095,92.68180820002453,93.1805131000001,93.16658509999979,93.16665730002569,93.1805131000001,93.87988329998916,93.86594370001694,,,,,,,,,,,,,,,,,,,,,,,,,,,,,,,,,,,,,,,,,,,,,,,,,,,,,,,,,,,,,,,,,test002,motor,1,0,2024-07-30_21h02.34.136,ASRT_percept,2023.2.3,59.145034866442565,
sequences/_initial_random.csv,2,180,2,2,red,,,,0,0,0,0,0,39,39,39,,,,,,,,,,,,,,,,,,,,,,,,,,,,,93.87988329998916,,,,,,,,,,,,,93.86700929998187,93.87988329998916,93.87988329998916,94.08171940001193,94.31690089998301,2,1,0.4234796999953687,None,94.31783409998752,94.33091409999179,94.33091409999179,94.83100320002995,95.32991570001468,95.31736799998907,95.31745839997893,95.32991570001468,96.02982529997826,96.0158901999821,,,,,,,,,,,,,,,,,,,,,,,,,,,,,,,,,,,,,,,,,,,,,,,,,,,,,,,,,,,,,,,,,test002,motor,1,0,2024-07-30_21h02.34.136,ASRT_percept,2023.2.3,59.145034866442565,
sequences/_initial_random.csv,3,270,3,1,red,,,,0,0,0,0,0,40,40,40,,,,,,,,,,,,,,,,,,,,,,,,,,,,,96.02982529997826,,,,,,,,,,,,,96.01834479998797,96.02982529997826,96.02982529997826,96.22916180000175,96.39785439998377,1,1,0.3632318999734707,None,96.3981515999767,96.413217000023,96.413217000023,96.9135810000007,97.41335570003139,97.3979709999985,97.39805670001078,97.41335570003139,98.11277310003061,98.09906310000224,,,,,,,,,,,,,,,,,,,,,,,,,,,,,,,,,,,,,,,,,,,,,,,,,,,,,,,,,,,,,,,,,test002,motor,1,0,2024-07-30_21h02.34.136,ASRT_percept,2023.2.3,59.145034866442565,
sequences/_initial_random.csv,3,270,3,1,red,,,,0,0,0,0,0,41,41,41,,,,,,,,,,,,,,,,,,,,,,,,,,,,,98.11277310003061,,,,,,,,,,,,,98.10057439998491,98.11277310003061,98.11277310003061,98.31366520002484,98.53641930001322,1,1,0.41228099999716505,None,98.5378633000073,98.54486000002362,98.54486000002362,99.04642600001534,99.5459842000273,99.53303869999945,99.53309849998914,99.5459842000273,,100.24520619999385,,,,,,,,,,,,,,,,,,,,,,,,,,,,,,,,,,,,,,,,,,,,,,,,,,,,,,,,,,,,,,,,,test002,motor,1,0,2024-07-30_21h02.34.136,ASRT_percept,2023.2.3,59.145034866442565,
sequences/_initial_random.csv,3,270,3,1,red,,,,0,0,0,0,0,42,42,42,,,,,,,,,,,,,,,,,,,,,,,,,,,,,100.26221140002599,,,,,,,,,,,,,100.24639470002148,100.26221140002599,100.26221140002599,100.46264719997998,100.60300160001498,1,1,0.3271357999765314,None,100.60446679999586,100.62066329998197,100.62066329998197,101.1118549000239,101.61269049998373,101.59749940002803,101.5977023000014,101.61269049998373,102.31177259999095,102.29718699998921,,,,,,,,,,,,,,,,,,,,,,,,,,,,,,,,,,,,,,,,,,,,,,,,,,,,,,,,,,,,,,,,,test002,motor,1,0,2024-07-30_21h02.34.136,ASRT_percept,2023.2.3,59.145034866442565,
sequences/_initial_random.csv,0,0,0,4,red,,,,0,0,0,0,0,43,43,43,,,,,,,,,,,,,,,,,,,,,,,,,,,,,102.31177259999095,,,,,,,,,,,,,102.29846259998158,102.31177259999095,102.31177259999095,102.5127093999763,102.74605289997999,4,1,0.4223894000169821,None,102.74634720000904,102.76045910001267,102.76045910001267,103.26058569998713,103.76227040000958,103.74668049998581,103.74675950000528,103.76227040000958,,104.44786200003,,,,,,,,,,,,,,,,,,,,,,,,,,,,,,,,,,,,,,,,,,,,,,,,,,,,,,,,,,,,,,,,,test002,motor,1,0,2024-07-30_21h02.34.136,ASRT_percept,2023.2.3,59.145034866442565,
sequences/_initial_random.csv,0,0,0,4,red,,,,0,0,0,0,0,44,44,44,,,,,,,,,,,,,,,,,,,,,,,,,,,,,104.46155810001073,,,,,,,,,,,,,104.44936710002366,104.46155810001073,104.46155810001073,104.66040140000405,104.86346860002959,4,1,0.3968921999912709,None,104.8643357999972,104.87666559999343,104.87666559999343,105.37670120003168,105.87696409999626,105.86235509999096,105.86243680003099,105.87696409999626,106.57745689997682,106.56259819999104,,,,,,,,,,,,,,,,,,,,,,,,,,,,,,,,,,,,,,,,,,,,,,,,,,,,,,,,,,,,,,,,,test002,motor,1,0,2024-07-30_21h02.34.136,ASRT_percept,2023.2.3,59.145034866442565,
sequences/_initial_random.csv,2,180,2,2,red,,,,0,0,0,0,0,45,45,45,,,,,,,,,,,,,,,,,,,,,,,,,,,,,106.57745689997682,,,,,,,,,,,,,106.56375139998272,106.57745689997682,106.57745689997682,106.77670520002721,107.01621349999914,2,1,0.4185958000016399,None,107.01877610001247,107.03235069999937,107.03235069999937,107.52636040002108,108.02640460000839,108.01162529998692,108.01173069997458,108.02640460000839,108.72715970000718,108.71198369999183,,,,,,,,,,,,,,,,,,,,,,,,,,,,,,,,,,,,,,,,,,,,,,,,,,,,,,,,,,,,,,,,,test002,motor,1,0,2024-07-30_21h02.34.136,ASRT_percept,2023.2.3,59.145034866442565,
sequences/_initial_random.csv,3,270,3,1,red,,,,0,0,0,0,0,46,46,46,,,,,,,,,,,,,,,,,,,,,,,,,,,,,108.72715970000718,,,,,,,,,,,,,108.7137099999818,108.72715970000718,108.72715970000718,108.92745580000337,109.08387089997996,1,1,0.34019280003849417,None,109.0855545999948,109.10245160001796,109.10245160001796,109.59216770000057,110.09293039998738,110.07896760001313,110.0790100999875,110.09293039998738,110.79268120002234,110.77775160002057,,,,,,,,,,,,,,,,,,,,,,,,,,,,,,,,,,,,,,,,,,,,,,,,,,,,,,,,,,,,,,,,,test002,motor,1,0,2024-07-30_21h02.34.136,ASRT_percept,2023.2.3,59.145034866442565,
sequences/_initial_random.csv,0,0,0,4,red,,,,0,0,0,0,0,47,47,47,,,,,,,,,,,,,,,,,,,,,,,,,,,,,110.79268120002234,,,,,,,,,,,,,110.77989260002505,110.79268120002234,110.79268120002234,110.99326479999581,111.1983435000293,4,1,0.3935389000107534,None,111.20057380001526,111.22142580000218,111.22142580000218,111.70873660000507,112.21138890000293,112.1986793000251,112.19878969999263,112.21138890000293,,112.90974610002013,,,,,,,,,,,,,,,,,,,,,,,,,,,,,,,,,,,,,,,,,,,,,,,,,,,,,,,,,,,,,,,,,test002,motor,1,0,2024-07-30_21h02.34.136,ASRT_percept,2023.2.3,59.145034866442565,
sequences/_initial_random.csv,0,0,0,4,red,,,,0,0,0,0,0,48,48,48,,,,,,,,,,,,,,,,,,,,,,,,,,,,,112.92845419998048,,,,,,,,,,,,,112.91129600000568,112.92845419998048,112.92845419998048,113.14086570002837,113.35933569999179,4,1,0.42488040000898764,None,113.35989760002121,113.37479079997865,113.37479079997865,113.88046000001486,114.37540469999658,114.3611852999893,114.36121150001418,114.37540469999658,115.07519559998764,115.06080570002086,,,,,,,,,,,,,,,,,,,,,,,,,,,,,,,,,,,,,,,,,,,,,,,,,,,,,,,,,,,,,,,,,test002,motor,1,0,2024-07-30_21h02.34.136,ASRT_percept,2023.2.3,59.145034866442565,
sequences/_initial_random.csv,2,180,2,2,red,,,,0,0,0,0,0,49,49,49,,,,,,,,,,,,,,,,,,,,,,,,,,,,,115.07519559998764,,,,,,,,,,,,,115.06208310002694,115.07519559998764,115.07519559998764,115.2913172999979,115.56295190000674,2,1,0.4708857999648899,None,115.56551510002464,115.58025800000178,115.58025800000178,116.07381450000685,116.5737541000126,116.55993170000147,116.56013709999388,116.5737541000126,117.28186390001792,117.26018949999707,,,,,,,,,,,,,,,,,,,,,,,,,,,,,,,,,,,,,,,,,,,,,,,,,,,,,,,,,,,,,,,,,test002,motor,1,0,2024-07-30_21h02.34.136,ASRT_percept,2023.2.3,59.145034866442565,
sequences/_initial_random.csv,1,90,1,3,red,,,,0,0,0,0,0,50,50,50,,,,,,,,,,,,,,,,,,,,,,,,,,,,,117.28186390001792,,,,,,,,,,,,,117.26171920000343,117.28186390001792,117.28186390001792,117.49062910000794,117.71059740002966,3,1,0.41654940001899377,None,117.71275160001824,117.72430750000058,117.72430750000058,118.22248200001195,118.72276889998466,118.7069988999865,118.70701479999116,118.72276889998466,119.42284940002719,119.40809169999557,,,,,,,,,,,,,,,,,,,,,,,,,,,,,,,,,,,,,,,,,,,,,,,,,,,,,,,,,,,,,,,,,test002,motor,1,0,2024-07-30_21h02.34.136,ASRT_percept,2023.2.3,59.145034866442565,
sequences/_initial_random.csv,1,90,1,3,red,,,,0,0,0,0,0,51,51,51,,,,,,,,,,,,,,,,,,,,,,,,,,,,,119.42284940002719,,,,,,,,,,,,,119.40849689999595,119.42284940002719,119.42284940002719,119.62259839999024,119.86208270001225,3,1,0.42886970000108704,None,119.86394020001171,119.8804374000174,119.8804374000174,120.37237900000764,120.87222770001972,120.8578247000114,120.85790370003087,120.87222770001972,121.57628249999834,121.559202799981,,,,,,,,,,,,,,,,,,,,,,,,,,,,,,,,,,,,,,,,,,,,,,,,,,,,,,,,,,,,,,,,,test002,motor,1,0,2024-07-30_21h02.34.136,ASRT_percept,2023.2.3,59.145034866442565,
sequences/_initial_random.csv,2,180,2,2,red,,,,0,0,0,0,0,52,52,52,,,,,,,,,,,,,,,,,,,,,,,,,,,,,121.57628249999834,,,,,,,,,,,,,121.56064540002262,121.57628249999834,121.57628249999834,121.78935310000088,122.03097670001443,2,1,0.44741339999018237,None,122.03205689997412,122.04672659997595,122.04672659997595,122.53908020001836,123.03922889998648,123.02389349997975,123.0239851999795,123.03922889998648,123.74261349998415,123.72426039999118,,,,,,,,,,,,,,,,,,,,,,,,,,,,,,,,,,,,,,,,,,,,,,,,,,,,,,,,,,,,,,,,,test002,motor,1,0,2024-07-30_21h02.34.136,ASRT_percept,2023.2.3,59.145034866442565,
sequences/_initial_random.csv,1,90,1,3,red,,,,0,0,0,0,0,53,53,53,,,,,,,,,,,,,,,,,,,,,,,,,,,,,123.74261349998415,,,,,,,,,,,,,123.72503969998797,123.74261349998415,123.74261349998415,123.9550903000054,124.11011850001523,3,1,0.3581228000111878,None,124.11260980000952,124.13058200001251,124.13058200001251,124.62027309997939,125.12074749998283,125.10637310001766,125.10644360003062,125.12074749998283,125.82357750000665,125.80605240003206,,,,,,,,,,,,,,,,,,,,,,,,,,,,,,,,,,,,,,,,,,,,,,,,,,,,,,,,,,,,,,,,,test002,motor,1,0,2024-07-30_21h02.34.136,ASRT_percept,2023.2.3,59.145034866442565,
sequences/_initial_random.csv,2,180,2,2,red,,,,0,0,0,0,0,54,54,54,,,,,,,,,,,,,,,,,,,,,,,,,,,,,125.82357750000665,,,,,,,,,,,,,125.8077903999947,125.82357750000665,125.82357750000665,126.03763779997826,126.27652140002465,2,1,0.43874850001884624,None,126.27752200001851,126.28774709999561,126.28774709999561,126.7878756999853,127.2874249999877,127.2735622000182,127.27364600001602,127.2874249999877,127.9859051000094,127.97231460001785,,,,,,,,,,,,,,,,,,,,,,,,,,,,,,,,,,,,,,,,,,,,,,,,,,,,,,,,,,,,,,,,,test002,motor,1,0,2024-07-30_21h02.34.136,ASRT_percept,2023.2.3,59.145034866442565,
sequences/_initial_random.csv,2,180,2,2,red,,,,0,0,0,0,0,55,55,55,,,,,,,,,,,,,,,,,,,,,,,,,,,,,127.9859051000094,,,,,,,,,,,,,127.97343650000403,127.9859051000094,127.9859051000094,128.187177099986,128.55922509997617,2,1,0.5605941999820061,None,128.5605210000067,128.56970779999392,128.56970779999392,129.06958250002936,129.57057179999538,129.55734579998534,129.5574331000098,129.57057179999538,130.26895310002146,130.25661939999554,,,,,,,,,,,,,,,,,,,,,,,,,,,,,,,,,,,,,,,,,,,,,,,,,,,,,,,,,,,,,,,,,test002,motor,1,0,2024-07-30_21h02.34.136,ASRT_percept,2023.2.3,59.145034866442565,
sequences/_initial_random.csv,3,270,3,1,red,,,,0,0,0,0,0,56,56,56,,,,,,,,,,,,,,,,,,,,,,,,,,,,,130.26895310002146,,,,,,,,,,,,,130.25776220002444,130.26895310002146,130.26895310002146,130.47009730001446,130.69350260001374,1,1,0.41581069998210296,None,130.69645689998288,130.7138461000286,130.7138461000286,131.2024654999841,131.7027578999987,131.68972820002818,131.68982249998953,131.7027578999987,,132.40187180001521,,,,,,,,,,,,,,,,,,,,,,,,,,,,,,,,,,,,,,,,,,,,,,,,,,,,,,,,,,,,,,,,,test002,motor,1,0,2024-07-30_21h02.34.136,ASRT_percept,2023.2.3,59.145034866442565,
sequences/_initial_random.csv,1,90,1,3,red,,,,0,0,0,0,0,57,57,57,,,,,,,,,,,,,,,,,,,,,,,,,,,,,132.41849539999384,,,,,,,,,,,,,132.40318610001123,132.41849539999384,132.41849539999384,132.61928079999052,132.8560134000145,3,1,0.4211635999963619,None,132.85752269998193,132.8717626000289,132.8717626000289,133.36758530000225,133.86733570002252,133.85505539999576,133.85520089999773,133.86733570002252,134.56748249998782,134.55342579999706,,,,,,,,,,,,,,,,,,,,,,,,,,,,,,,,,,,,,,,,,,,,,,,,,,,,,,,,,,,,,,,,,test002,motor,1,0,2024-07-30_21h02.34.136,ASRT_percept,2023.2.3,59.145034866442565,
sequences/_initial_random.csv,1,90,1,3,red,,,,0,0,0,0,0,58,58,58,,,,,,,,,,,,,,,,,,,,,,,,,,,,,134.56748249998782,,,,,,,,,,,,,134.55530399997951,134.56748249998782,134.56748249998782,134.7678476999863,135.00763700000243,3,1,0.42453479999676347,None,135.00932920002379,135.02437479997752,135.02437479997752,135.5182348000235,136.0190979000181,136.00308320001932,136.0031971000135,136.0190979000181,,136.71779249998508,,,,,,,,,,,,,,,,,,,,,,,,,,,,,,,,,,,,,,,,,,,,,,,,,,,,,,,,,,,,,,,,,test002,motor,1,0,2024-07-30_21h02.34.136,ASRT_percept,2023.2.3,59.145034866442565,
sequences/_initial_random.csv,0,0,0,4,red,,,,0,0,0,0,0,59,59,59,,,,,,,,,,,,,,,,,,,,,,,,,,,,,136.73546330002137,,,,,,,,,,,,,136.7201861999929,136.73546330002137,136.73546330002137,136.93446630000835,137.10562799999025,4,1,0.35954710002988577,None,137.10718779999297,137.11672530003125,137.11672530003125,137.61722210003063,138.11710700002732,138.1021617000224,138.10221149999416,138.11710700002732,138.81702479999512,138.80257410003105,,,,,,,,,,,,,,,,,,,,,,,,,,,,,,,,,,,,,,,,,,,,,,,,,,,,,,,,,,,,,,,,,test002,motor,1,0,2024-07-30_21h02.34.136,ASRT_percept,2023.2.3,59.145034866442565,
sequences/_initial_random.csv,3,270,3,1,red,,,,0,0,0,0,0,60,60,60,,,,,,,,,,,,,,,,,,,,,,,,,,,,,138.81702479999512,,,,,,,,,,,,,138.80329950002488,138.81702479999512,138.81702479999512,139.01685389998602,139.20701640000334,3,0,0.37141930003417656,None,139.21024550002767,139.2360593000194,139.2360593000194,139.71693100000266,140.21648130001267,140.20234979997622,140.20241030002944,140.21648130001267,140.91683699999703,140.9038872999954,,,,,,,,,,,,,,,,,,,,,,,,,,,,,,,,,,,,,,,,,,,,,,,,,,,,,,,,,,,,,,,,,test002,motor,1,0,2024-07-30_21h02.34.136,ASRT_percept,2023.2.3,59.145034866442565,
sequences/_initial_random.csv,0,0,0,4,red,,,,0,0,0,0,0,61,61,61,,,,,,,,,,,,,,,,,,,,,,,,,,,,,140.91683699999703,,,,,,,,,,,,,140.906418700004,140.91683699999703,140.91683699999703,141.1161974000279,141.58337060001213,4,1,0.6604379000491463,None,141.58374380000168,141.59785750001902,141.59785750001902,142.09845240000868,142.5998874999932,142.5871463000076,142.58723280002596,142.5998874999932,143.2985336999991,143.2847872999846,,,,,,,,,,,,,,,,,,,,,,,,,,,,,,,,,,,,,,,,,,,,,,,,,,,,,,,,,,,,,,,,,test002,motor,1,0,2024-07-30_21h02.34.136,ASRT_percept,2023.2.3,59.145034866442565,
sequences/_initial_random.csv,2,180,2,2,red,,,,0,0,0,0,0,62,62,62,,,,,,,,,,,,,,,,,,,,,,,,,,,,,143.2985336999991,,,,,,,,,,,,,143.28656440001214,143.2985336999991,143.2985336999991,143.49888780002948,143.78905269998359,2,1,0.47914559999480844,None,143.78983949997928,143.80960420001065,143.80960420001065,144.29743650002638,144.79828009998892,144.78391009999905,144.78405479999492,144.79828009998892,145.49977910000598,145.486470200005,,,,,,,,,,,,,,,,,,,,,,,,,,,,,,,,,,,,,,,,,,,,,,,,,,,,,,,,,,,,,,,,,test002,motor,1,0,2024-07-30_21h02.34.136,ASRT_percept,2023.2.3,59.145034866442565,
sequences/_initial_random.csv,1,90,1,3,red,,,,0,0,0,0,0,63,63,63,,,,,,,,,,,,,,,,,,,,,,,,,,,,,145.49977910000598,,,,,,,,,,,,,145.48841310001444,145.49977910000598,145.49977910000598,145.71511300001293,145.88775890000397,3,1,0.3761450999882072,None,145.8903395999805,145.9015023999964,145.9015023999964,146.39775040000677,146.8977666000137,146.882402200019,146.88249019999057,146.8977666000137,147.59792199998628,147.58221490000142,,,,,,,,,,,,,,,,,,,,,,,,,,,,,,,,,,,,,,,,,,,,,,,,,,,,,,,,,,,,,,,,,test002,motor,1,0,2024-07-30_21h02.34.136,ASRT_percept,2023.2.3,59.145034866442565,
sequences/_initial_random.csv,0,0,0,4,red,,,,0,0,0,0,0,64,64,64,,,,,,,,,,,,,,,,,,,,,,,,,,,,,147.59792199998628,,,,,,,,,,,,,147.58377239998663,147.59792199998628,147.59792199998628,147.81796840002062,148.01494979998097,4,1,0.4068208999815397,None,148.015589800023,148.03049979999196,148.03049979999196,148.53228970000055,149.0297220000066,149.01622639998095,149.01634570001625,149.0297220000066,149.73093900003005,149.71551429998362,,,,,,,,,,,,,,,,,,,,,,,,,,,,,,,,,,,,,,,,,,,,,,,,,,,,,,,,,,,,,,,,,test002,motor,1,0,2024-07-30_21h02.34.136,ASRT_percept,2023.2.3,59.145034866442565,
sequences/_initial_random.csv,2,180,2,2,red,,,,0,0,0,0,0,65,65,65,,,,,,,,,,,,,,,,,,,,,,,,,,,,,149.73093900003005,,,,,,,,,,,,,149.71685440000147,149.73093900003005,149.73093900003005,149.92957400000887,150.25314129999606,2,1,0.5128648999962024,None,150.2541673000087,150.26881390000926,150.26881390000926,150.7623992000008,151.26285599998664,151.24947500001872,151.24953550001374,151.26285599998664,151.96197770000435,151.9465893000015,,,,,,,,,,,,,,,,,,,,,,,,,,,,,,,,,,,,,,,,,,,,,,,,,,,,,,,,,,,,,,,,,test002,motor,1,0,2024-07-30_21h02.34.136,ASRT_percept,2023.2.3,59.145034866442565,
sequences/_initial_random.csv,1,90,1,3,red,,,,0,0,0,0,0,66,66,66,,,,,,,,,,,,,,,,,,,,,,,,,,,,,151.96197770000435,,,,,,,,,,,,,151.94714210001985,151.96197770000435,151.96197770000435,152.16194600000745,152.94685509998817,None,0,,,152.94800939998822,152.96281960001215,152.96281960001215,153.4619524999871,153.9621361999889,153.94822459999705,153.94827629998326,153.9621361999889,154.66200040001422,154.64687310002046,152.96281960001215,,,,,,,,,,,,,,,,,,,,,,,,,,,,,,,,,,,,,,,,,,,,,,,,,,,,,,,,,,,,,,,,test002,motor,1,0,2024-07-30_21h02.34.136,ASRT_percept,2023.2.3,59.145034866442565,
sequences/_initial_random.csv,3,270,3,1,red,,,,0,0,0,0,0,67,67,67,,,,,,,,,,,,,,,,,,,,,,,,,,,,,154.66200040001422,,,,,,,,,,,,,154.6472776000155,154.66200040001422,154.66200040001422,154.86274509999203,155.0695723000099,1,1,0.3996939000207931,None,155.0702358999988,155.08414729998913,155.08414729998913,155.57823410001583,156.0781892000232,156.0650174000184,156.06508430000395,156.0781892000232,156.77730560000055,156.7615875999909,,,,,,,,,,,,,,,,,,,,,,,,,,,,,,,,,,,,,,,,,,,,,,,,,,,,,,,,,,,,,,,,,test002,motor,1,0,2024-07-30_21h02.34.136,ASRT_percept,2023.2.3,59.145034866442565,
sequences/_initial_random.csv,0,0,0,4,red,,,,0,0,0,0,0,68,68,68,,,,,,,,,,,,,,,,,,,,,,,,,,,,,156.77730560000055,,,,,,,,,,,,,156.76190460001817,156.77730560000055,156.77730560000055,156.976856400026,157.18300219997764,4,1,0.3884206999791786,None,157.18515009997645,157.19436439999845,157.19436439999845,157.69465140003012,158.1943706999882,158.1803342999774,158.18043270002818,158.1943706999882,158.89394789998187,158.87921330000972,,,,,,,,,,,,,,,,,,,,,,,,,,,,,,,,,,,,,,,,,,,,,,,,,,,,,,,,,,,,,,,,,test002,motor,1,0,2024-07-30_21h02.34.136,ASRT_percept,2023.2.3,59.145034866442565,
sequences/_initial_random.csv,1,90,1,3,red,,,,0,0,0,0,0,69,69,69,,,,,,,,,,,,,,,,,,,,,,,,,,,,,158.89394789998187,,,,,,,,,,,,,158.8808648000122,158.89394789998187,158.89394789998187,159.09418379998533,159.27996950002853,3,1,0.38119849999202415,None,159.2812816000078,159.29344620002666,159.29344620002666,159.79447319998872,160.29272249998758,160.27898619999178,160.2790688999812,160.29272249998758,160.99285490001785,160.97975890000816,,,,,,,,,,,,,,,,,,,,,,,,,,,,,,,,,,,,,,,,,,,,,,,,,,,,,,,,,,,,,,,,,test002,motor,1,0,2024-07-30_21h02.34.136,ASRT_percept,2023.2.3,59.145034866442565,
sequences/_initial_random.csv,3,270,3,1,red,,,,0,0,0,0,0,70,70,70,,,,,,,,,,,,,,,,,,,,,,,,,,,,,160.99285490001785,,,,,,,,,,,,,160.98068500001682,160.99285490001785,160.99285490001785,161.19313259999035,161.3990491000004,1,1,0.40093579998938367,None,161.39983110001776,161.4098890000023,161.4098890000023,161.9092747999821,162.41021669999463,162.39525370002957,162.3955426000175,162.41021669999463,163.11182190000545,163.09587509999983,,,,,,,,,,,,,,,,,,,,,,,,,,,,,,,,,,,,,,,,,,,,,,,,,,,,,,,,,,,,,,,,,test002,motor,1,0,2024-07-30_21h02.34.136,ASRT_percept,2023.2.3,59.145034866442565,
sequences/_initial_random.csv,3,270,3,1,red,,,,0,0,0,0,0,71,71,71,,,,,,,,,,,,,,,,,,,,,,,,,,,,,163.11182190000545,,,,,,,,,,,,,163.09769050002797,163.11182190000545,163.11182190000545,163.32504600001266,163.55933880002704,1,1,0.4410339000169188,None,163.56004040001426,163.57514480000827,163.57514480000827,164.07623020000756,164.57545150001533,164.56097699998645,164.5610183000099,164.57545150001533,165.274433100014,165.2607779999962,,,,,,,,,,,,,,,,,,,,,,,,,,,,,,,,,,,,,,,,,,,,,,,,,,,,,,,,,,,,,,,,,test002,motor,1,0,2024-07-30_21h02.34.136,ASRT_percept,2023.2.3,59.145034866442565,
sequences/_initial_random.csv,3,270,3,1,red,,,,0,0,0,0,0,72,72,72,,,,,,,,,,,,,,,,,,,,,,,,,,,,,165.274433100014,,,,,,,,,,,,,165.26276359998155,165.274433100014,165.274433100014,165.47534509998513,165.6806916000205,1,1,0.38952000002609566,None,165.6826894999831,165.69028560002334,165.69028560002334,166.19177540001692,166.69094800000312,166.6764740999788,166.6765576999751,166.69094800000312,167.39250200003153,167.37838429998374,,,,,,,,,,,,,,,,,,,,,,,,,,,,,,,,,,,,,,,,,,,,,,,,,,,,,,,,,,,,,,,,,test002,motor,1,0,2024-07-30_21h02.34.136,ASRT_percept,2023.2.3,59.145034866442565,
sequences/_initial_random.csv,1,90,1,3,red,,,,0,0,0,0,0,73,73,73,,,,,,,,,,,,,,,,,,,,,,,,,,,,,167.39250200003153,,,,,,,,,,,,,167.38023650000105,167.39250200003153,167.39250200003153,167.60741579998285,167.7810223000124,3,1,0.37687700003152713,None,167.78303890000097,167.79705210000975,167.79705210000975,168.2907546000206,168.79191750002792,168.77718889998505,168.77731239999412,168.79191750002792,169.49100969999563,169.4777541999938,,,,,,,,,,,,,,,,,,,,,,,,,,,,,,,,,,,,,,,,,,,,,,,,,,,,,,,,,,,,,,,,,test002,motor,1,0,2024-07-30_21h02.34.136,ASRT_percept,2023.2.3,59.145034866442565,
sequences/_initial_random.csv,2,180,2,2,red,,,,0,0,0,0,0,74,74,74,,,,,,,,,,,,,,,,,,,,,,,,,,,,,169.49100969999563,,,,,,,,,,,,,169.47953820001567,169.49100969999563,169.49100969999563,169.69115119997878,169.92671979998704,2,1,0.42045699997106567,None,169.92726199998287,169.9404976000078,169.9404976000078,170.43977619998623,170.9395442000241,170.92513099999633,170.92516749998322,170.9395442000241,171.63962289999472,171.62547650001943,,,,,,,,,,,,,,,,,,,,,,,,,,,,,,,,,,,,,,,,,,,,,,,,,,,,,,,,,,,,,,,,,test002,motor,1,0,2024-07-30_21h02.34.136,ASRT_percept,2023.2.3,59.145034866442565,
sequences/_initial_random.csv,2,180,2,2,red,,,,0,0,0,0,0,75,75,75,,,,,,,,,,,,,,,,,,,,,,,,,,,,,171.63962289999472,,,,,,,,,,,,,171.62611220002873,171.63962289999472,171.63962289999472,171.83980409998912,172.04499139997642,2,1,0.39143820002209395,None,172.04598430002807,172.05676700000186,172.05676700000186,172.55524770001648,173.0558263999992,173.04311610001605,173.04319920000853,173.0558263999992,173.75469660002273,173.74148859997513,,,,,,,,,,,,,,,,,,,,,,,,,,,,,,,,,,,,,,,,,,,,,,,,,,,,,,,,,,,,,,,,,test002,motor,1,0,2024-07-30_21h02.34.136,ASRT_percept,2023.2.3,59.145034866442565,
sequences/_initial_random.csv,3,270,3,1,red,,,,0,0,0,0,0,76,76,76,,,,,,,,,,,,,,,,,,,,,,,,,,,,,173.75469660002273,,,,,,,,,,,,,173.74262019997695,173.75469660002273,173.75469660002273,173.95617429999402,174.14873880002415,1,1,0.3850417999783531,None,174.1505562000093,174.16661130002467,174.16661130002467,174.65590429998701,175.15644589997828,175.14193149999483,175.14202490000753,175.15644589997828,175.85751719999826,175.84161539998604,,,,,,,,,,,,,,,,,,,,,,,,,,,,,,,,,,,,,,,,,,,,,,,,,,,,,,,,,,,,,,,,,test002,motor,1,0,2024-07-30_21h02.34.136,ASRT_percept,2023.2.3,59.145034866442565,
sequences/_initial_random.csv,0,0,0,4,red,,,,0,0,0,0,0,77,77,77,,,,,,,,,,,,,,,,,,,,,,,,,,,,,175.85751719999826,,,,,,,,,,,,,175.8436662000022,175.85751719999826,175.85751719999826,176.07228860002942,176.26559770002495,4,1,0.4012569999904372,None,176.2665721999947,176.2808057999937,176.2808057999937,176.77133529999992,177.27099290001206,177.25669280003058,177.25692419998813,177.27099290001206,177.97021150001092,177.95873870002106,,,,,,,,,,,,,,,,,,,,,,,,,,,,,,,,,,,,,,,,,,,,,,,,,,,,,,,,,,,,,,,,,test002,motor,1,0,2024-07-30_21h02.34.136,ASRT_percept,2023.2.3,59.145034866442565,
sequences/_initial_random.csv,3,270,3,1,red,,,,0,0,0,0,0,78,78,78,,,,,,,,,,,,,,,,,,,,,,,,,,,,,177.97021150001092,,,,,,,,,,,,,177.9598387000151,177.97021150001092,177.97021150001092,178.17125780001516,178.34291449998273,1,1,0.3670579000026919,None,178.3434112999821,178.353797400021,178.353797400021,178.85519440000644,179.3535947999917,179.33999210002366,179.34008080000058,179.3535947999917,180.05327879998367,180.039543699997,,,,,,,,,,,,,,,,,,,,,,,,,,,,,,,,,,,,,,,,,,,,,,,,,,,,,,,,,,,,,,,,,test002,motor,1,0,2024-07-30_21h02.34.136,ASRT_percept,2023.2.3,59.145034866442565,
sequences/_initial_random.csv,0,0,0,4,red,,,,0,0,0,0,0,79,79,79,,,,,,,,,,,,,,,,,,,,,,,,,,,,,180.05327879998367,,,,,,,,,,,,,180.0408127999981,180.05327879998367,180.05327879998367,180.25400319998153,180.46068870002637,4,1,0.4025550000369549,None,180.46156450000126,180.47140909999143,180.47140909999143,180.96965550002642,181.47029790002853,181.45644739997806,181.45649499999126,181.47029790002853,182.16994709998835,182.15534980001394,,,,,,,,,,,,,,,,,,,,,,,,,,,,,,,,,,,,,,,,,,,,,,,,,,,,,,,,,,,,,,,,,test002,motor,1,0,2024-07-30_21h02.34.136,ASRT_percept,2023.2.3,59.145034866442565,
sequences/_initial_random.csv,3,270,3,1,red,,,,0,0,0,0,0,80,80,80,,,,,,,,,,,,,,,,,,,,,,,,,,,,,182.16994709998835,,,,,,,,,,,,,182.1562513000099,182.16994709998835,182.16994709998835,182.36980330001097,182.60842890001368,1,1,0.42048849997809157,None,182.61052240000572,182.6228541000164,182.6228541000164,183.11991870001657,183.6196153999772,183.60523320001084,183.60528080002405,183.6196153999772,184.32173999998486,184.30494529998396,,,,,,,,,,,,,,,,,,,,,,,,,,,,,,,,,,,,,,,,,,,,,,,,,,,,,,,,,,,,,,,,,test002,motor,1,0,2024-07-30_21h02.34.136,ASRT_percept,2023.2.3,59.145034866442565,
sequences/_initial_random.csv,3,270,3,1,red,,,,0,0,0,0,0,81,81,81,,,,,,,,,,,,,,,,,,,,,,,,,,,,,184.32173999998486,,,,,,,,,,,,,184.30694699997548,184.32173999998486,184.32173999998486,184.53643029998057,184.70534970000153,1,1,0.3720053000142798,None,184.7060623000143,184.71972240001196,184.71972240001196,185.21790490002604,185.71913149999455,185.7063116999925,185.70633770001587,185.71913149999455,186.42179500003112,186.4052218000288,,,,,,,,,,,,,,,,,,,,,,,,,,,,,,,,,,,,,,,,,,,,,,,,,,,,,,,,,,,,,,,,,test002,motor,1,0,2024-07-30_21h02.34.136,ASRT_percept,2023.2.3,59.145034866442565,
sequences/_initial_random.csv,3,270,3,1,red,,,,0,0,0,0,0,82,82,82,,,,,,,,,,,,,,,,,,,,,,,,,,,,,186.42179500003112,,,,,,,,,,,,,186.40634059999138,186.42179500003112,186.42179500003112,186.63547849998577,186.82411470002262,1,1,0.3912070000078529,None,186.82567260001088,186.8408761000028,186.8408761000028,187.33491959999083,187.83456920000026,187.8193261999986,187.81939000001876,187.83456920000026,188.5357009000145,188.5200544000254,,,,,,,,,,,,,,,,,,,,,,,,,,,,,,,,,,,,,,,,,,,,,,,,,,,,,,,,,,,,,,,,,test002,motor,1,0,2024-07-30_21h02.34.136,ASRT_percept,2023.2.3,59.145034866442565,
sequences/_initial_random.csv,3,270,3,1,red,,,,0,0,0,0,0,83,83,83,,,,,,,,,,,,,,,,,,,,,,,,,,,,,188.5357009000145,,,,,,,,,,,,,188.52110529999482,188.5357009000145,188.5357009000145,188.73497440002393,188.92515790002653,1,1,0.3806186000001617,None,188.92757619998883,188.9406157999765,188.9406157999765,189.43502099998295,189.93941970000742,189.9214845999959,189.92156749998685,189.93941970000742,,190.63506330002565,,,,,,,,,,,,,,,,,,,,,,,,,,,,,,,,,,,,,,,,,,,,,,,,,,,,,,,,,,,,,,,,,test002,motor,1,0,2024-07-30_21h02.34.136,ASRT_percept,2023.2.3,59.145034866442565,
sequences/_initial_random.csv,3,270,3,1,red,,,,0,0,0,0,0,84,84,84,,,,,,,,,,,,,,,,,,,,,,,,,,,,,190.65088239999022,,,,,,,,,,,,,190.6368890000158,190.65088239999022,190.65088239999022,190.85033009998733,190.9910529999761,1,1,0.3296294000465423,None,190.99256739998236,191.00523780001095,191.00523780001095,191.50032980000833,192.0008017999935,191.9849842999829,191.9850222999812,192.0008017999935,192.72768190002535,192.6859323999961,,,,,,,,,,,,,,,,,,,,,,,,,,,,,,,,,,,,,,,,,,,,,,,,,,,,,,,,,,,,,,,,,test002,motor,1,0,2024-07-30_21h02.34.136,ASRT_percept,2023.2.3,59.145034866442565,
,,,,,,,,,,,,,,,,,,,,,,,,,,,,,,,,,,,,,,,,,,,,,,,,,,,,,,,,,,,,,,,,,,,,,,,,,,,,,,192.68614459998207,192.72768190002535,192.72768190002535,194.40116960002342,space,1.6593658999772742,None,194.4036309000221,194.4163341000094,194.4163341000094,194.4163341000094,200.61780110001564,left,6.190440799982753,None,,,,,,,,,,,,,,,,,,,,,,,,,,,,,,,,,,,,,,,,,,,,,,,,,test002,motor,1,0,2024-07-30_21h02.34.136,ASRT_percept,2023.2.3,59.145034866442565,
,2,180,3,1,red,sequences/_practice_sequence_00.csv,,,,,,,,,,,0,0,0,0,0,0,0,45,,,,,,,,,,,,,,,,,,,,,201.65610840002773,,,,,,,,,,200.6518858000054,200.65545150003163,201.6311216999893,201.65275250002742,201.65610840002773,201.65610840002773,201.86415749997832,202.63164789997973,None,0,,,202.63400900003035,202.65030310000293,202.65030310000293,203.14697020000312,203.6504216999747,203.63288240000838,203.63295370002743,203.6504216999747,,204.34781260002637,,,,,,,,,,,,,,,,,,,,,,,,,,,,,,,,,,,,,,,,,,,,,,,,,,,,,,,,,,,,,,,,,test002,motor,1,0,2024-07-30_21h02.34.136,ASRT_percept,2023.2.3,59.145034866442565,
,2,180,3,1,red,sequences/_practice_sequence_00.csv,,,,,,,,,,,0,0,0,0,0,1,1,34,,,,,,,,,,,,,,,,,,,,,204.36286739999196,,,,,,,,,,,,,204.3496619000216,204.36286739999196,204.36286739999196,204.56319760001497,204.80447470000945,1,1,0.43400199996540323,None,204.80619580001803,204.82453630003147,204.82453630003147,205.31237469997723,205.8128154000151,205.7981063000043,205.7981667999993,205.8128154000151,,206.51186329999473,,,,,,,,,,,,,,,,,,,,,,,,,,,,,,,,,,,,,,,,,,,,,,,,,,,,,,,,,,,,,,,,,test002,motor,1,0,2024-07-30_21h02.34.136,ASRT_percept,2023.2.3,59.145034866442565,
,2,180,3,1,red,sequences/_practice_sequence_00.csv,,,,,,,,,,,0,0,0,0,0,2,2,62,,,,,,,,,,,,,,,,,,,,,206.52825440000743,,,,,,,,,,,,,206.51250359998085,206.52825440000743,206.52825440000743,206.72808939998504,206.91457199997967,1,1,0.373262099979911,None,206.9153722000192,206.92835910001304,206.92835910001304,207.42866620002314,207.93016480002552,207.91475240001455,207.91480050003156,207.93016480002552,,208.6296751999762,,,,,,,,,,,,,,,,,,,,,,,,,,,,,,,,,,,,,,,,,,,,,,,,,,,,,,,,,,,,,,,,,test002,motor,1,0,2024-07-30_21h02.34.136,ASRT_percept,2023.2.3,59.145034866442565,
,2,180,3,1,red,sequences/_practice_sequence_00.csv,,,,,,,,,,,0,0,0,0,0,3,3,61,,,,,,,,,,,,,,,,,,,,,208.64474319998408,,,,,,,,,,,,,208.63107020000461,208.64474319998408,208.64474319998408,208.84507620002842,209.10402540001087,4,0,0.4515691999695264,None,209.10661399998935,209.1355334999971,209.1355334999971,209.61113610002212,210.11178959999233,210.09864620002918,210.09869900002377,210.11178959999233,,210.81162950000726,,,,,,,,,,,,,,,,,,,,,,,,,,,,,,,,,,,,,,,,,,,,,,,,,,,,,,,,,,,,,,,,,test002,motor,1,0,2024-07-30_21h02.34.136,ASRT_percept,2023.2.3,59.145034866442565,
,1,90,2,2,red,sequences/_practice_sequence_00.csv,,,,,,,,,,,0,0,0,0,0,4,4,15,,,,,,,,,,,,,,,,,,,,,210.82823250000365,,,,,,,,,,,,,210.81325559999095,210.82823250000365,210.82823250000365,211.02763830003096,211.33102079998935,2,1,0.4868521000025794,None,211.33166329999221,211.34501059999457,211.34501059999457,211.84355059999507,212.34288519999245,212.3296406000154,212.32971989997895,212.34288519999245,213.04382580000674,213.0292715000105,,,,,,,,,,,,,,,,,,,,,,,,,,,,,,,,,,,,,,,,,,,,,,,,,,,,,,,,,,,,,,,,,test002,motor,1,0,2024-07-30_21h02.34.136,ASRT_percept,2023.2.3,59.145034866442565,
,3,270,0,4,red,sequences/_practice_sequence_00.csv,,,,,,,,,,,0,0,0,0,0,5,5,53,,,,,,,,,,,,,,,,,,,,,213.04382580000674,,,,,,,,,,,,,213.03004829998827,213.04382580000674,213.04382580000674,213.24345429998357,213.51747949997662,4,1,0.45886989997234195,None,213.51921539998148,213.52781200001482,213.52781200001482,214.0265147999744,214.52735420002136,214.51258670003153,214.5126643999829,214.52735420002136,215.22830299998168,215.214528099983,,,,,,,,,,,,,,,,,,,,,,,,,,,,,,,,,,,,,,,,,,,,,,,,,,,,,,,,,,,,,,,,,test002,motor,1,0,2024-07-30_21h02.34.136,ASRT_percept,2023.2.3,59.145034866442565,
,1,90,2,2,red,sequences/_practice_sequence_00.csv,,,,,,,,,,,0,0,0,0,0,6,6,33,,,,,,,,,,,,,,,,,,,,,215.22830299998168,,,,,,,,,,,,,215.21618430002127,215.22830299998168,215.22830299998168,215.44227820000378,215.7002128000022,4,0,0.46320470003411174,None,215.70149589999346,215.7190944000031,215.7190944000031,216.21001450001495,216.7088131000055,216.697909599985,216.69797650002874,216.7088131000055,217.40973730001133,217.39437019999605,,,,,,,,,,,,,,,,,,,,,,,,,,,,,,,,,,,,,,,,,,,,,,,,,,,,,,,,,,,,,,,,,test002,motor,1,0,2024-07-30_21h02.34.136,ASRT_percept,2023.2.3,59.145034866442565,
,0,0,1,3,red,sequences/_practice_sequence_00.csv,,,,,,,,,,,0,0,0,0,0,7,7,77,,,,,,,,,,,,,,,,,,,,,217.40973730001133,,,,,,,,,,,,,217.39524280000478,217.40973730001133,217.40973730001133,217.6093361999956,217.77894659998128,3,1,0.35249699995620176,None,217.7801758000278,217.79230790003203,217.79230790003203,218.29347550001694,218.7913129000226,218.778255000012,218.77833920001285,218.7913129000226,219.4923610999831,219.477772800019,,,,,,,,,,,,,,,,,,,,,,,,,,,,,,,,,,,,,,,,,,,,,,,,,,,,,,,,,,,,,,,,,test002,motor,1,0,2024-07-30_21h02.34.136,ASRT_percept,2023.2.3,59.145034866442565,
,0,0,1,3,red,sequences/_practice_sequence_00.csv,,,,,,,,,,,0,0,0,0,0,8,8,73,,,,,,,,,,,,,,,,,,,,,219.4923610999831,,,,,,,,,,,,,219.47904150001705,219.4923610999831,219.4923610999831,219.69270359998336,219.91475890000584,3,1,0.4141193000250496,None,219.91585619997932,219.9362205999787,219.9362205999787,220.42452880000928,220.92552170000272,220.9118896999862,220.91199250001227,220.92552170000272,221.62364619999425,221.61057640000945,,,,,,,,,,,,,,,,,,,,,,,,,,,,,,,,,,,,,,,,,,,,,,,,,,,,,,,,,,,,,,,,,test002,motor,1,0,2024-07-30_21h02.34.136,ASRT_percept,2023.2.3,59.145034866442565,
,1,90,2,2,red,sequences/_practice_sequence_00.csv,,,,,,,,,,,0,0,0,0,0,9,9,20,,,,,,,,,,,,,,,,,,,,,221.62364619999425,,,,,,,,,,,,,221.6111804000102,221.62364619999425,221.62364619999425,221.82425489998423,222.10995770001318,2,1,0.4786193000036292,None,222.11074560001725,222.12374429998454,222.12374429998454,222.62391660001595,223.12379240000155,223.10815859999275,223.10822350002127,223.12379240000155,223.82346809998853,223.8077577999793,,,,,,,,,,,,,,,,,,,,,,,,,,,,,,,,,,,,,,,,,,,,,,,,,,,,,,,,,,,,,,,,,test002,motor,1,0,2024-07-30_21h02.34.136,ASRT_percept,2023.2.3,59.145034866442565,
,3,270,0,4,red,sequences/_practice_sequence_00.csv,,,,,,,,,,,0,0,0,0,0,10,10,6,,,,,,,,,,,,,,,,,,,,,223.82346809998853,,,,,,,,,,,,,223.8083824000205,223.82346809998853,223.82346809998853,224.02374710002914,224.4456571000046,4,1,0.6115320999524556,None,224.44614580000052,224.4563569999882,224.4563569999882,224.95555249997415,225.45558509998955,225.44647889997577,225.44655470002908,225.45558509998955,226.155500199995,226.141555899987,,,,,,,,,,,,,,,,,,,,,,,,,,,,,,,,,,,,,,,,,,,,,,,,,,,,,,,,,,,,,,,,,test002,motor,1,0,2024-07-30_21h02.34.136,ASRT_percept,2023.2.3,59.145034866442565,
,1,90,2,2,red,sequences/_practice_sequence_00.csv,,,,,,,,,,,0,0,0,0,0,11,11,28,,,,,,,,,,,,,,,,,,,,,226.155500199995,,,,,,,,,,,,,226.1430361000239,226.155500199995,226.155500199995,226.3558565999847,226.64645469997777,3,0,0.47454369999468327,None,226.64784609997878,226.66800090001198,226.66800090001198,227.15548800001852,227.65578269999241,227.64227730000857,227.64239799999632,227.65578269999241,228.35487510001985,228.34217730001546,,,,,,,,,,,,,,,,,,,,,,,,,,,,,,,,,,,,,,,,,,,,,,,,,,,,,,,,,,,,,,,,,test002,motor,1,0,2024-07-30_21h02.34.136,ASRT_percept,2023.2.3,59.145034866442565,
,0,0,1,3,red,sequences/_practice_sequence_00.csv,,,,,,,,,,,0,0,0,0,0,12,12,47,,,,,,,,,,,,,,,,,,,,,228.35487510001985,,,,,,,,,,,,,228.34314319997793,228.35487510001985,228.35487510001985,228.55465110001387,228.84448079997674,3,1,0.4811302999733016,None,228.845649600029,228.8539032000117,228.8539032000117,229.3549503000104,229.85591079998994,229.84095510002226,229.84108179999748,229.85591079998994,230.55567179998616,230.54136969998945,,,,,,,,,,,,,,,,,,,,,,,,,,,,,,,,,,,,,,,,,,,,,,,,,,,,,,,,,,,,,,,,,test002,motor,1,0,2024-07-30_21h02.34.136,ASRT_percept,2023.2.3,59.145034866442565,
,2,180,3,1,red,sequences/_practice_sequence_00.csv,,,,,,,,,,,0,0,0,0,0,13,13,71,,,,,,,,,,,,,,,,,,,,,230.55567179998616,,,,,,,,,,,,,230.54289659997448,230.55567179998616,230.55567179998616,230.75573370000347,231.11180279997643,1,1,0.5426369999768212,None,231.11317600001348,231.120840699994,231.120840699994,231.62042629998177,232.12211270001717,232.10669649997726,232.10709549998865,232.12211270001717,232.82430949999252,232.8075525999884,,,,,,,,,,,,,,,,,,,,,,,,,,,,,,,,,,,,,,,,,,,,,,,,,,,,,,,,,,,,,,,,,test002,motor,1,0,2024-07-30_21h02.34.136,ASRT_percept,2023.2.3,59.145034866442565,
,0,0,1,3,red,sequences/_practice_sequence_00.csv,,,,,,,,,,,0,0,0,0,0,14,14,70,,,,,,,,,,,,,,,,,,,,,232.82430949999252,,,,,,,,,,,,,232.80953949998366,232.82430949999252,232.82430949999252,233.03812059998745,233.34460499999113,3,1,0.49793479999061674,None,233.34578059997875,233.3558252999792,233.3558252999792,233.85373560001608,234.35380450001685,234.3396747999941,234.3397858000244,234.35380450001685,235.05353319999995,235.0415649000206,,,,,,,,,,,,,,,,,,,,,,,,,,,,,,,,,,,,,,,,,,,,,,,,,,,,,,,,,,,,,,,,,test002,motor,1,0,2024-07-30_21h02.34.136,ASRT_percept,2023.2.3,59.145034866442565,
,0,0,1,3,red,sequences/_practice_sequence_00.csv,,,,,,,,,,,0,0,0,0,0,15,15,13,,,,,,,,,,,,,,,,,,,,,235.05353319999995,,,,,,,,,,,,,235.0423262999975,235.05353319999995,235.05353319999995,235.25301939999918,235.54399480001302,3,1,0.4737759999698028,None,235.54569769999944,235.55671630002325,235.55671630002325,236.05324269999983,236.5529393000179,236.53739670000505,236.53743369999574,236.5529393000179,237.2529893000028,237.23923479998484,,,,,,,,,,,,,,,,,,,,,,,,,,,,,,,,,,,,,,,,,,,,,,,,,,,,,,,,,,,,,,,,,test002,motor,1,0,2024-07-30_21h02.34.136,ASRT_percept,2023.2.3,59.145034866442565,
,0,0,1,3,red,sequences/_practice_sequence_00.csv,,,,,,,,,,,0,0,0,0,0,16,16,25,,,,,,,,,,,,,,,,,,,,,237.2529893000028,,,,,,,,,,,,,237.24052400002256,237.2529893000028,237.2529893000028,237.45309840003029,237.57492189999903,3,1,0.30851599999004975,None,237.57691870001145,237.58886979997624,237.58886979997624,238.08586500003003,238.5856313999975,238.57143710000673,238.57148849999066,238.5856313999975,239.28486269997666,239.2716435000184,,,,,,,,,,,,,,,,,,,,,,,,,,,,,,,,,,,,,,,,,,,,,,,,,,,,,,,,,,,,,,,,,test002,motor,1,0,2024-07-30_21h02.34.136,ASRT_percept,2023.2.3,59.145034866442565,
,2,180,3,1,red,sequences/_practice_sequence_00.csv,,,,,,,,,,,0,0,0,0,0,17,17,27,,,,,,,,,,,,,,,,,,,,,239.28486269997666,,,,,,,,,,,,,239.27331399999093,239.28486269997666,239.28486269997666,239.48598639998818,239.7778263000073,1,1,0.48157189995981753,None,239.77927729999647,239.79301209998084,239.79301209998084,240.28444910002872,240.7873580000014,240.7715259999968,240.77163769997424,240.7873580000014,,241.48562739999034,,,,,,,,,,,,,,,,,,,,,,,,,,,,,,,,,,,,,,,,,,,,,,,,,,,,,,,,,,,,,,,,,test002,motor,1,0,2024-07-30_21h02.34.136,ASRT_percept,2023.2.3,59.145034866442565,
,3,270,0,4,red,sequences/_practice_sequence_00.csv,,,,,,,,,,,0,0,0,0,0,18,18,19,,,,,,,,,,,,,,,,,,,,,241.50421430001734,,,,,,,,,,,,,241.48702890001005,241.50421430001734,241.50421430001734,241.70203520002542,242.0407093000249,4,1,0.5244991999934427,None,242.04139430000214,242.05444400000852,242.05444400000852,242.5513382999925,243.05008750001434,243.03397510002833,243.03400109999347,243.05008750001434,,243.7349984999746,,,,,,,,,,,,,,,,,,,,,,,,,,,,,,,,,,,,,,,,,,,,,,,,,,,,,,,,,,,,,,,,,test002,motor,1,0,2024-07-30_21h02.34.136,ASRT_percept,2023.2.3,59.145034866442565,
,0,0,1,3,red,sequences/_practice_sequence_00.csv,,,,,,,,,,,0,0,0,0,0,19,19,58,,,,,,,,,,,,,,,,,,,,,243.7502383000101,,,,,,,,,,,,,243.73646089999238,243.7502383000101,243.7502383000101,243.95064009999624,244.20723080000607,3,1,0.45139279996510595,None,244.2082205999759,244.21543759998167,244.21543759998167,244.71721069997875,245.2178296999773,245.20368430000963,245.20377820002614,245.2178296999773,,245.91804890002823,,,,,,,,,,,,,,,,,,,,,,,,,,,,,,,,,,,,,,,,,,,,,,,,,,,,,,,,,,,,,,,,,test002,motor,1,0,2024-07-30_21h02.34.136,ASRT_percept,2023.2.3,59.145034866442565,
,0,0,1,3,red,sequences/_practice_sequence_00.csv,,,,,,,,,,,0,0,0,0,0,20,20,42,,,,,,,,,,,,,,,,,,,,,245.9336622999981,,,,,,,,,,,,,245.92000659997575,245.9336622999981,245.9336622999981,246.14920909999637,246.37061580002774,3,1,0.4340247999643907,None,246.37124990002485,246.38181829999667,246.38181829999667,246.88194039999507,247.3862827999983,247.3701947000227,247.37033290002728,247.3862827999983,,248.08307039999636,,,,,,,,,,,,,,,,,,,,,,,,,,,,,,,,,,,,,,,,,,,,,,,,,,,,,,,,,,,,,,,,,test002,motor,1,0,2024-07-30_21h02.34.136,ASRT_percept,2023.2.3,59.145034866442565,
,2,180,3,1,red,sequences/_practice_sequence_00.csv,,,,,,,,,,,0,0,0,0,0,21,21,54,,,,,,,,,,,,,,,,,,,,,248.10097839997616,,,,,,,,,,,,,248.08433300000615,248.10097839997616,248.10097839997616,248.3158901000279,248.6046402999782,1,1,0.48602429998572916,None,248.60685169999488,248.62742129998514,248.62742129998514,249.11581669998122,249.61558069998864,249.60120279999683,249.60128090000944,249.61558069998864,250.31528859998798,250.30231070000445,,,,,,,,,,,,,,,,,,,,,,,,,,,,,,,,,,,,,,,,,,,,,,,,,,,,,,,,,,,,,,,,,test002,motor,1,0,2024-07-30_21h02.34.136,ASRT_percept,2023.2.3,59.145034866442565,
,2,180,3,1,red,sequences/_practice_sequence_00.csv,,,,,,,,,,,0,0,0,0,0,22,22,3,,,,,,,,,,,,,,,,,,,,,250.31528859998798,,,,,,,,,,,,,250.30329429998528,250.31528859998798,250.31528859998798,250.51548330002697,250.79101350001292,1,1,0.4661494999891147,None,250.79210080002667,250.80587179999566,250.80587179999566,251.29921590001322,251.79918500001077,251.78431070002262,251.78444279998075,251.79918500001077,,252.49827879999066,,,,,,,,,,,,,,,,,,,,,,,,,,,,,,,,,,,,,,,,,,,,,,,,,,,,,,,,,,,,,,,,,test002,motor,1,0,2024-07-30_21h02.34.136,ASRT_percept,2023.2.3,59.145034866442565,
,0,0,1,3,red,sequences/_practice_sequence_00.csv,,,,,,,,,,,0,0,0,0,0,23,23,65,,,,,,,,,,,,,,,,,,,,,252.51815239997813,,,,,,,,,,,,,252.49983729998348,252.51815239997813,252.51815239997813,252.73042039998109,252.97171349998098,3,1,0.44660169997951016,None,252.97351849998813,252.99266139999963,252.99266139999963,253.47964169998886,253.98010480002267,253.96660480002174,253.96670669998275,253.98010480002267,254.68038540001726,254.66506979998667,,,,,,,,,,,,,,,,,,,,,,,,,,,,,,,,,,,,,,,,,,,,,,,,,,,,,,,,,,,,,,,,,test002,motor,1,0,2024-07-30_21h02.34.136,ASRT_percept,2023.2.3,59.145034866442565,
,0,0,1,3,red,sequences/_practice_sequence_00.csv,,,,,,,,,,,0,0,0,0,0,24,24,5,,,,,,,,,,,,,,,,,,,,,254.68038540001726,,,,,,,,,,,,,254.66724530002102,254.68038540001726,254.68038540001726,254.87904149998212,255.0537871000124,3,1,0.366762799967546,None,255.05485690000933,255.06572519999463,255.06572519999463,255.56305850000354,256.0641623000265,256.0489803000237,256.0490563000203,256.0641623000265,,256.7626915000146,,,,,,,,,,,,,,,,,,,,,,,,,,,,,,,,,,,,,,,,,,,,,,,,,,,,,,,,,,,,,,,,,test002,motor,1,0,2024-07-30_21h02.34.136,ASRT_percept,2023.2.3,59.145034866442565,
,3,270,0,4,red,sequences/_practice_sequence_00.csv,,,,,,,,,,,0,0,0,0,0,25,25,37,,,,,,,,,,,,,,,,,,,,,256.7791287000291,,,,,,,,,,,,,256.76405749999685,256.7791287000291,256.7791287000291,256.9789249000023,257.24843869998585,1,0,0.4606509999721311,None,257.2490289999987,257.2623081000056,257.2623081000056,257.76197350001894,258.26218020002125,258.24775620002765,258.24785759998485,258.26218020002125,258.9626208000118,258.94869340001605,,,,,,,,,,,,,,,,,,,,,,,,,,,,,,,,,,,,,,,,,,,,,,,,,,,,,,,,,,,,,,,,,test002,motor,1,0,2024-07-30_21h02.34.136,ASRT_percept,2023.2.3,59.145034866442565,
,3,270,0,4,red,sequences/_practice_sequence_00.csv,,,,,,,,,,,0,0,0,0,0,26,26,23,,,,,,,,,,,,,,,,,,,,,258.9626208000118,,,,,,,,,,,,,258.95000960002653,258.9626208000118,258.9626208000118,259.16318059997866,259.4148509000079,4,1,0.43562499998370185,None,259.4185745000141,259.4332940999884,259.4332940999884,259.9279061999987,260.4292630000273,260.41548510000575,260.4156480000238,260.4292630000273,261.1313241000171,261.11443170002894,,,,,,,,,,,,,,,,,,,,,,,,,,,,,,,,,,,,,,,,,,,,,,,,,,,,,,,,,,,,,,,,,test002,motor,1,0,2024-07-30_21h02.34.136,ASRT_percept,2023.2.3,59.145034866442565,
,0,0,1,3,red,sequences/_practice_sequence_00.csv,,,,,,,,,,,0,0,0,0,0,27,27,35,,,,,,,,,,,,,,,,,,,,,261.1313241000171,,,,,,,,,,,,,261.1169713999843,261.1313241000171,261.1313241000171,261.3462508000084,261.55306379997637,3,1,0.40106040000682697,None,261.55502600001637,261.5729877999984,261.5729877999984,262.06041299999924,262.56070869998075,262.5452591999783,262.5452805000241,262.56070869998075,263.26060199999483,263.2471902000252,,,,,,,,,,,,,,,,,,,,,,,,,,,,,,,,,,,,,,,,,,,,,,,,,,,,,,,,,,,,,,,,,test002,motor,1,0,2024-07-30_21h02.34.136,ASRT_percept,2023.2.3,59.145034866442565,
,0,0,1,3,red,sequences/_practice_sequence_00.csv,,,,,,,,,,,0,0,0,0,0,28,28,9,,,,,,,,,,,,,,,,,,,,,263.26060199999483,,,,,,,,,,,,,263.2492626000312,263.26060199999483,263.26060199999483,263.4616599000292,263.6329519000137,3,1,0.361356400011573,None,263.6355281000142,263.6437633000314,263.6437633000314,264.14425690000644,264.6436818999937,264.6300407000235,264.63013120001415,264.6436818999937,265.3436465000268,265.32988829998067,,,,,,,,,,,,,,,,,,,,,,,,,,,,,,,,,,,,,,,,,,,,,,,,,,,,,,,,,,,,,,,,,test002,motor,1,0,2024-07-30_21h02.34.136,ASRT_percept,2023.2.3,59.145034866442565,
,0,0,1,3,red,sequences/_practice_sequence_00.csv,,,,,,,,,,,0,0,0,0,0,29,29,18,,,,,,,,,,,,,,,,,,,,,265.3436465000268,,,,,,,,,,,,,265.33066839998355,265.3436465000268,265.3436465000268,265.5424786999938,265.7511120000272,3,1,0.3986400000285357,None,265.75265829998534,265.7695491000195,265.7695491000195,266.26095279998844,266.7606127000181,266.7450751999859,266.74515029997565,266.7606127000181,,267.4612239000271,,,,,,,,,,,,,,,,,,,,,,,,,,,,,,,,,,,,,,,,,,,,,,,,,,,,,,,,,,,,,,,,,test002,motor,1,0,2024-07-30_21h02.34.136,ASRT_percept,2023.2.3,59.145034866442565,
,2,180,3,1,red,sequences/_practice_sequence_00.csv,,,,,,,,,,,0,0,0,0,0,30,30,69,,,,,,,,,,,,,,,,,,,,,267.4797278000042,,,,,,,,,,,,,267.4632709000143,267.4797278000042,267.4797278000042,267.69241080002394,267.9821080000256,1,1,0.4918931000283919,None,267.9838694999926,267.9936137999757,267.9936137999757,268.49281090003205,268.99300060002133,268.9781462000101,268.9781945000286,268.99300060002133,269.69237499998417,269.67926539998734,,,,,,,,,,,,,,,,,,,,,,,,,,,,,,,,,,,,,,,,,,,,,,,,,,,,,,,,,,,,,,,,,test002,motor,1,0,2024-07-30_21h02.34.136,ASRT_percept,2023.2.3,59.145034866442565,
,1,90,2,2,red,sequences/_practice_sequence_00.csv,,,,,,,,,,,0,0,0,0,0,31,31,78,,,,,,,,,,,,,,,,,,,,,269.69237499998417,,,,,,,,,,,,,269.68102389998967,269.69237499998417,269.69237499998417,269.8919179000077,270.23187529999996,2,1,0.520652000035625,None,270.2333338999888,270.2508307999815,270.2508307999815,270.74243059998844,271.2418594000046,271.2279280999792,271.22804459999315,271.2418594000046,271.94122410001,271.927227600012,,,,,,,,,,,,,,,,,,,,,,,,,,,,,,,,,,,,,,,,,,,,,,,,,,,,,,,,,,,,,,,,,test002,motor,1,0,2024-07-30_21h02.34.136,ASRT_percept,2023.2.3,59.145034866442565,
,0,0,1,3,red,sequences/_practice_sequence_00.csv,,,,,,,,,,,0,0,0,0,0,32,32,4,,,,,,,,,,,,,,,,,,,,,271.94122410001,,,,,,,,,,,,,271.9285652000108,271.94122410001,271.94122410001,272.141649600002,272.34733840002446,3,1,0.3948604000033811,None,272.3489255000022,272.36689549998846,272.36689549998846,272.85728180001024,273.3579139999929,273.3431302999961,273.3432242000126,273.3579139999929,274.0571821000194,274.0432246000273,,,,,,,,,,,,,,,,,,,,,,,,,,,,,,,,,,,,,,,,,,,,,,,,,,,,,,,,,,,,,,,,,test002,motor,1,0,2024-07-30_21h02.34.136,ASRT_percept,2023.2.3,59.145034866442565,
,3,270,0,4,red,sequences/_practice_sequence_00.csv,,,,,,,,,,,0,0,0,0,0,33,33,14,,,,,,,,,,,,,,,,,,,,,274.0571821000194,,,,,,,,,,,,,274.0453498000279,274.0571821000194,274.0571821000194,274.25780800002394,274.54760029999306,4,1,0.4815351999714039,None,274.5487135000294,274.5616527000093,274.5616527000093,275.05765370000154,275.55709969997406,275.5420892999973,275.54216289997566,275.55709969997406,276.25592780002626,276.24253220000537,,,,,,,,,,,,,,,,,,,,,,,,,,,,,,,,,,,,,,,,,,,,,,,,,,,,,,,,,,,,,,,,,test002,motor,1,0,2024-07-30_21h02.34.136,ASRT_percept,2023.2.3,59.145034866442565,
,3,270,0,4,red,sequences/_practice_sequence_00.csv,,,,,,,,,,,0,0,0,0,0,34,34,60,,,,,,,,,,,,,,,,,,,,,276.25592780002626,,,,,,,,,,,,,276.24466030002804,276.25592780002626,276.25592780002626,276.45684220001567,276.8301827000105,4,1,0.5641726999892853,None,276.8307945000124,276.8407655999763,276.8407655999763,277.34024150000187,277.84115410002414,277.82775200001197,277.82784340000944,277.84115410002414,,278.5397490999894,,,,,,,,,,,,,,,,,,,,,,,,,,,,,,,,,,,,,,,,,,,,,,,,,,,,,,,,,,,,,,,,,test002,motor,1,0,2024-07-30_21h02.34.136,ASRT_percept,2023.2.3,59.145034866442565,
,0,0,1,3,red,sequences/_practice_sequence_00.csv,,,,,,,,,,,0,0,0,0,0,35,35,16,,,,,,,,,,,,,,,,,,,,,278.5561483000056,,,,,,,,,,,,,278.54100129997823,278.5561483000056,278.5561483000056,278.7566479999805,278.9306836000178,3,1,0.3608162000309676,None,278.93383370002266,278.9487385000102,278.9487385000102,279.43899300001794,279.9383980000275,279.9244736999972,279.9245173999807,279.9383980000275,280.6388449000078,280.6239427999826,,,,,,,,,,,,,,,,,,,,,,,,,,,,,,,,,,,,,,,,,,,,,,,,,,,,,,,,,,,,,,,,,test002,motor,1,0,2024-07-30_21h02.34.136,ASRT_percept,2023.2.3,59.145034866442565,
,2,180,3,1,red,sequences/_practice_sequence_00.csv,,,,,,,,,,,0,0,0,0,0,36,36,41,,,,,,,,,,,,,,,,,,,,,280.6388449000078,,,,,,,,,,,,,280.62505500001134,280.6388449000078,280.6388449000078,280.85443140001735,280.9751282000216,3,0,0.332479799981229,None,280.9755055999849,280.98758670000825,280.98758670000825,281.48817139997846,281.9900342000183,281.97515000001295,281.9753017000039,281.9900342000183,,282.68917979998514,,,,,,,,,,,,,,,,,,,,,,,,,,,,,,,,,,,,,,,,,,,,,,,,,,,,,,,,,,,,,,,,,test002,motor,1,0,2024-07-30_21h02.34.136,ASRT_percept,2023.2.3,59.145034866442565,
,3,270,0,4,red,sequences/_practice_sequence_00.csv,,,,,,,,,,,0,0,0,0,0,37,37,0,,,,,,,,,,,,,,,,,,,,,282.7051341999904,,,,,,,,,,,,,282.6905950999935,282.7051341999904,282.7051341999904,282.90533809998306,283.1763416000176,4,1,0.45465390000026673,None,283.1779391000164,283.1913470000145,283.1913470000145,283.6879948999849,284.1868710999843,284.17076409998117,284.1708013000316,284.1868710999843,,284.871067799977,,,,,,,,,,,,,,,,,,,,,,,,,,,,,,,,,,,,,,,,,,,,,,,,,,,,,,,,,,,,,,,,,test002,motor,1,0,2024-07-30_21h02.34.136,ASRT_percept,2023.2.3,59.145034866442565,
,2,180,3,1,red,sequences/_practice_sequence_00.csv,,,,,,,,,,,0,0,0,0,0,38,38,80,,,,,,,,,,,,,,,,,,,,,284.88821790000657,,,,,,,,,,,,,284.8719801999978,284.88821790000657,284.88821790000657,285.0890751000261,285.4618402000051,1,1,0.5660672999802046,None,285.4633858000161,285.4801645000116,285.4801645000116,285.97157210001023,286.4693867000169,286.45666790002724,286.45674829999916,286.4693867000169,287.16898700001184,287.1551172999898,,,,,,,,,,,,,,,,,,,,,,,,,,,,,,,,,,,,,,,,,,,,,,,,,,,,,,,,,,,,,,,,,test002,motor,1,0,2024-07-30_21h02.34.136,ASRT_percept,2023.2.3,59.145034866442565,
,0,0,1,3,red,sequences/_practice_sequence_00.csv,,,,,,,,,,,0,0,0,0,0,39,39,56,,,,,,,,,,,,,,,,,,,,,287.16898700001184,,,,,,,,,,,,,287.15626880002674,287.16898700001184,287.16898700001184,287.3702756999992,287.61214869999094,3,1,0.4347794000059366,None,287.61361699999543,287.6390238000313,287.6390238000313,288.11924859997816,288.6188666999806,288.60466920002364,288.60471440001857,288.6188666999806,289.3190931000281,289.30578900000546,,,,,,,,,,,,,,,,,,,,,,,,,,,,,,,,,,,,,,,,,,,,,,,,,,,,,,,,,,,,,,,,,test002,motor,1,0,2024-07-30_21h02.34.136,ASRT_percept,2023.2.3,59.145034866442565,
,3,270,0,4,red,sequences/_practice_sequence_00.csv,,,,,,,,,,,0,0,0,0,0,40,40,21,,,,,,,,,,,,,,,,,,,,,289.3190931000281,,,,,,,,,,,,,289.3075205999776,289.3190931000281,289.3190931000281,289.51938309997786,289.77355709997937,4,1,0.4415094999712892,None,289.77463479997823,289.795485700015,289.795485700015,290.2859666000004,290.7849386000307,290.7690492999973,290.76907390000997,290.7849386000307,291.48771740001393,291.46974289999343,,,,,,,,,,,,,,,,,,,,,,,,,,,,,,,,,,,,,,,,,,,,,,,,,,,,,,,,,,,,,,,,,test002,motor,1,0,2024-07-30_21h02.34.136,ASRT_percept,2023.2.3,59.145034866442565,
,2,180,3,1,red,sequences/_practice_sequence_00.csv,,,,,,,,,,,0,0,0,0,0,41,41,26,,,,,,,,,,,,,,,,,,,,,291.48771740001393,,,,,,,,,,,,,291.4711469000322,291.48771740001393,291.48771740001393,291.701119299978,291.92143270000815,1,1,0.4242611000081524,None,291.9217499999795,291.9343395999749,291.9343395999749,292.43413830001373,292.9340690000099,292.9190584999742,292.9191285999841,292.9340690000099,,293.6195925999782,,,,,,,,,,,,,,,,,,,,,,,,,,,,,,,,,,,,,,,,,,,,,,,,,,,,,,,,,,,,,,,,,test002,motor,1,0,2024-07-30_21h02.34.136,ASRT_percept,2023.2.3,59.145034866442565,
,1,90,2,2,red,sequences/_practice_sequence_00.csv,,,,,,,,,,,0,0,0,0,0,42,42,51,,,,,,,,,,,,,,,,,,,,,293.63360930001363,,,,,,,,,,,,,293.6226381000015,293.63360930001363,293.63360930001363,293.8340454000281,294.223690600018,2,1,0.5831602000398561,None,294.22454969998216,294.2332987000118,294.2332987000118,294.7338608999853,295.2347114000004,295.2193688999978,295.21943729999475,295.2347114000004,295.93413900001906,295.9193112999783,,,,,,,,,,,,,,,,,,,,,,,,,,,,,,,,,,,,,,,,,,,,,,,,,,,,,,,,,,,,,,,,,test002,motor,1,0,2024-07-30_21h02.34.136,ASRT_percept,2023.2.3,59.145034866442565,
,3,270,0,4,red,sequences/_practice_sequence_00.csv,,,,,,,,,,,0,0,0,0,0,43,43,83,,,,,,,,,,,,,,,,,,,,,295.93413900001906,,,,,,,,,,,,,295.92035430000396,295.93413900001906,295.93413900001906,296.13497890002327,296.40241759998025,4,1,0.4604222000343725,None,296.4028971000225,296.41637360001914,296.41637360001914,296.9179877000279,297.42037010000786,297.40356790000806,297.4036534000188,297.42037010000786,,298.11641690001125,,,,,,,,,,,,,,,,,,,,,,,,,,,,,,,,,,,,,,,,,,,,,,,,,,,,,,,,,,,,,,,,,test002,motor,1,0,2024-07-30_21h02.34.136,ASRT_percept,2023.2.3,59.145034866442565,
,2,180,3,1,red,sequences/_practice_sequence_00.csv,,,,,,,,,,,0,0,0,0,0,44,44,49,,,,,,,,,,,,,,,,,,,,,298.1329555999837,,,,,,,,,,,,,298.1179951999802,298.1329555999837,298.1329555999837,298.3334879000322,298.62497559998883,1,1,0.4713929000427015,None,298.6257897000178,298.6317078000284,298.6317078000284,299.1326325000264,299.6328326999792,299.6195672000176,299.6196879000054,299.6328326999792,300.3322388000088,300.31854860001476,,,,,,,,,,,,,,,,,,,,,,,,,,,,,,,,,,,,,,,,,,,,,,,,,,,,,,,,,,,,,,,,,test002,motor,1,0,2024-07-30_21h02.34.136,ASRT_percept,2023.2.3,59.145034866442565,
,3,270,0,4,red,sequences/_practice_sequence_00.csv,,,,,,,,,,,0,0,0,0,0,45,45,11,,,,,,,,,,,,,,,,,,,,,300.3322388000088,,,,,,,,,,,,,300.3198829999892,300.3322388000088,300.3322388000088,300.5328760999837,300.7544016999891,4,1,0.4076220999704674,None,300.7576338999788,300.78113010001834,300.78113010001834,301.2652472999762,301.7656811000197,301.7513692000066,301.7514496999793,301.7656811000197,302.46586300001945,302.45145300001604,,,,,,,,,,,,,,,,,,,,,,,,,,,,,,,,,,,,,,,,,,,,,,,,,,,,,,,,,,,,,,,,,test002,motor,1,0,2024-07-30_21h02.34.136,ASRT_percept,2023.2.3,59.145034866442565,
,2,180,3,1,red,sequences/_practice_sequence_00.csv,,,,,,,,,,,0,0,0,0,0,46,46,64,,,,,,,,,,,,,,,,,,,,,302.46586300001945,,,,,,,,,,,,,302.4531686999835,302.46586300001945,302.46586300001945,302.6657447000034,302.94112510001287,1,1,0.465797399985604,None,302.94261149998056,302.9629439000273,302.9629439000273,303.4475463000126,303.94832520000637,303.93522669997765,303.93531229998916,303.94832520000637,304.64766150002833,304.6336383000016,,,,,,,,,,,,,,,,,,,,,,,,,,,,,,,,,,,,,,,,,,,,,,,,,,,,,,,,,,,,,,,,,test002,motor,1,0,2024-07-30_21h02.34.136,ASRT_percept,2023.2.3,59.145034866442565,
,2,180,3,1,red,sequences/_practice_sequence_00.csv,,,,,,,,,,,0,0,0,0,0,47,47,29,,,,,,,,,,,,,,,,,,,,,304.64766150002833,,,,,,,,,,,,,304.63508430001093,304.64766150002833,304.64766150002833,304.8479853000026,305.1014818000258,1,1,0.4364870999706909,None,305.1021632999764,305.1140918000019,305.1140918000019,305.6143585999962,306.11706449999474,306.1012767999782,306.10138770000776,306.11706449999474,,306.8152879999834,,,,,,,,,,,,,,,,,,,,,,,,,,,,,,,,,,,,,,,,,,,,,,,,,,,,,,,,,,,,,,,,,test002,motor,1,0,2024-07-30_21h02.34.136,ASRT_percept,2023.2.3,59.145034866442565,
,1,90,2,2,red,sequences/_practice_sequence_00.csv,,,,,,,,,,,0,0,0,0,0,48,48,40,,,,,,,,,,,,,,,,,,,,,306.8305420000106,,,,,,,,,,,,,306.8166413999861,306.8305420000106,306.8305420000106,307.03103130002273,307.3830192000023,2,1,0.5478684999980032,None,307.3835738999769,307.3962745000026,307.3962745000026,307.89707980002277,308.39882649999345,308.38414129999,308.38423249998596,308.39882649999345,,309.0975769999786,,,,,,,,,,,,,,,,,,,,,,,,,,,,,,,,,,,,,,,,,,,,,,,,,,,,,,,,,,,,,,,,,test002,motor,1,0,2024-07-30_21h02.34.136,ASRT_percept,2023.2.3,59.145034866442565,
,0,0,1,3,red,sequences/_practice_sequence_00.csv,,,,,,,,,,,0,0,0,0,0,49,49,22,,,,,,,,,,,,,,,,,,,,,309.11675450002076,,,,,,,,,,,,,309.09896789997583,309.11675450002076,309.11675450002076,309.3297089000116,309.6040885000257,4,0,0.4784810999990441,None,309.6063983999775,309.6256107999943,309.6256107999943,310.11355589999584,310.6157499999972,310.6003252000082,310.60041389998514,310.6157499999972,,311.3132428000099,,,,,,,,,,,,,,,,,,,,,,,,,,,,,,,,,,,,,,,,,,,,,,,,,,,,,,,,,,,,,,,,,test002,motor,1,0,2024-07-30_21h02.34.136,ASRT_percept,2023.2.3,59.145034866442565,
,1,90,2,2,red,sequences/_practice_sequence_00.csv,,,,,,,,,,,0,0,0,0,0,50,50,2,,,,,,,,,,,,,,,,,,,,,311.32831240003,,,,,,,,,,,,,311.31503749999683,311.32831240003,311.32831240003,311.52962300000945,311.8987586000003,2,1,0.5554202999919653,None,311.899337299983,311.91202180000255,311.91202180000255,312.4130331000197,312.91210850002244,312.89919409999857,312.8992780999979,312.91210850002244,313.61206870002206,313.59677569998894,,,,,,,,,,,,,,,,,,,,,,,,,,,,,,,,,,,,,,,,,,,,,,,,,,,,,,,,,,,,,,,,,test002,motor,1,0,2024-07-30_21h02.34.136,ASRT_percept,2023.2.3,59.145034866442565,
,0,0,1,3,red,sequences/_practice_sequence_00.csv,,,,,,,,,,,0,0,0,0,0,51,51,30,,,,,,,,,,,,,,,,,,,,,313.61206870002206,,,,,,,,,,,,,313.5978468999965,313.61206870002206,313.61206870002206,313.8279599000234,314.09761270001763,3,1,0.473451700003352,None,314.098050599976,314.11115000001155,314.11115000001155,314.6107880999916,315.1105713000288,315.09594570001354,315.0960928000277,315.1105713000288,315.81096199998865,315.79709760000696,,,,,,,,,,,,,,,,,,,,,,,,,,,,,,,,,,,,,,,,,,,,,,,,,,,,,,,,,,,,,,,,,test002,motor,1,0,2024-07-30_21h02.34.136,ASRT_percept,2023.2.3,59.145034866442565,
,3,270,0,4,red,sequences/_practice_sequence_00.csv,,,,,,,,,,,0,0,0,0,0,52,52,38,,,,,,,,,,,,,,,,,,,,,315.81096199998865,,,,,,,,,,,,,315.7987527999794,315.81096199998865,315.81096199998865,316.01062160002766,316.28195099998266,1,0,0.4552628999808803,None,316.2836346999975,316.293659500021,316.293659500021,316.79340949998004,317.2948037000024,317.2806546000065,317.2809382000123,317.2948037000024,,317.9977813999867,,,,,,,,,,,,,,,,,,,,,,,,,,,,,,,,,,,,,,,,,,,,,,,,,,,,,,,,,,,,,,,,,test002,motor,1,0,2024-07-30_21h02.34.136,ASRT_percept,2023.2.3,59.145034866442565,
,1,90,2,2,red,sequences/_practice_sequence_00.csv,,,,,,,,,,,0,0,0,0,0,53,53,66,,,,,,,,,,,,,,,,,,,,,318.010170500027,,,,,,,,,,,,,317.9995371000259,318.010170500027,318.010170500027,318.20938289997866,318.54907970002387,2,1,0.5268985999864526,None,318.55127110000467,318.56390449998435,318.56390449998435,319.06020030000946,319.5598855999997,319.5454080000054,319.545489799988,319.5598855999997,320.2593375000288,320.2457908000215,,,,,,,,,,,,,,,,,,,,,,,,,,,,,,,,,,,,,,,,,,,,,,,,,,,,,,,,,,,,,,,,,test002,motor,1,0,2024-07-30_21h02.34.136,ASRT_percept,2023.2.3,59.145034866442565,
,2,180,3,1,red,sequences/_practice_sequence_00.csv,,,,,,,,,,,0,0,0,0,0,54,54,24,,,,,,,,,,,,,,,,,,,,,320.2593375000288,,,,,,,,,,,,,320.2479567999835,320.2593375000288,320.2593375000288,320.4595032000216,320.76786750002066,1,1,0.4862289999728091,None,320.76865769998403,320.77511049999157,320.77511049999157,321.2787158000283,321.7755782000022,321.7592978000175,321.7593229999766,321.7755782000022,,322.4602261999971,,,,,,,,,,,,,,,,,,,,,,,,,,,,,,,,,,,,,,,,,,,,,,,,,,,,,,,,,,,,,,,,,test002,motor,1,0,2024-07-30_21h02.34.136,ASRT_percept,2023.2.3,59.145034866442565,
,1,90,2,2,red,sequences/_practice_sequence_00.csv,,,,,,,,,,,0,0,0,0,0,55,55,36,,,,,,,,,,,,,,,,,,,,,322.47737610002514,,,,,,,,,,,,,322.4619835999911,322.47737610002514,322.47737610002514,322.6927133999998,322.9826022000052,2,1,0.4884984999662265,None,322.9840573000256,322.99384040001314,322.99384040001314,323.49212170002284,323.992412600026,323.97926759999245,323.97939470002893,323.992412600026,324.69482570001855,324.6789593999856,,,,,,,,,,,,,,,,,,,,,,,,,,,,,,,,,,,,,,,,,,,,,,,,,,,,,,,,,,,,,,,,,test002,motor,1,0,2024-07-30_21h02.34.136,ASRT_percept,2023.2.3,59.145034866442565,
,0,0,1,3,red,sequences/_practice_sequence_00.csv,,,,,,,,,,,0,0,0,0,0,56,56,59,,,,,,,,,,,,,,,,,,,,,324.69482570001855,,,,,,,,,,,,,324.68027050001547,324.69482570001855,324.69482570001855,324.9081022000173,325.21360670001013,3,1,0.5103100999840535,None,325.2143691999954,325.2237289000186,325.2237289000186,325.7238052000175,326.22465190000366,326.2101220000186,326.21015649999026,326.22465190000366,,326.92387739999685,,,,,,,,,,,,,,,,,,,,,,,,,,,,,,,,,,,,,,,,,,,,,,,,,,,,,,,,,,,,,,,,,test002,motor,1,0,2024-07-30_21h02.34.136,ASRT_percept,2023.2.3,59.145034866442565,
,0,0,1,3,red,sequences/_practice_sequence_00.csv,,,,,,,,,,,0,0,0,0,0,57,57,46,,,,,,,,,,,,,,,,,,,,,326.93970709998393,,,,,,,,,,,,,326.9242708000238,326.93970709998393,326.93970709998393,327.1410192999756,327.41602220002096,3,1,0.4679057000321336,None,327.4180372999981,327.4314374999958,327.4314374999958,327.923890999984,328.42411909997463,328.40933880000375,328.4094284999883,328.42411909997463,,329.110187400016,,,,,,,,,,,,,,,,,,,,,,,,,,,,,,,,,,,,,,,,,,,,,,,,,,,,,,,,,,,,,,,,,test002,motor,1,0,2024-07-30_21h02.34.136,ASRT_percept,2023.2.3,59.145034866442565,
,3,270,0,4,red,sequences/_practice_sequence_00.csv,,,,,,,,,,,0,0,0,0,0,58,58,72,,,,,,,,,,,,,,,,,,,,,329.1234915999812,,,,,,,,,,,,,329.1108039999963,329.1234915999812,329.1234915999812,329.32379100000253,329.66302769997856,4,1,0.5340903999749571,None,329.6644062999985,329.677283899975,329.677283899975,330.17362570000114,330.67542689997936,330.6615813000244,330.6616669999785,330.67542689997936,,331.37371499999426,,,,,,,,,,,,,,,,,,,,,,,,,,,,,,,,,,,,,,,,,,,,,,,,,,,,,,,,,,,,,,,,,test002,motor,1,0,2024-07-30_21h02.34.136,ASRT_percept,2023.2.3,59.145034866442565,
,3,270,0,4,red,sequences/_practice_sequence_00.csv,,,,,,,,,,,0,0,0,0,0,59,59,74,,,,,,,,,,,,,,,,,,,,,331.38934799999697,,,,,,,,,,,,,331.3750302999979,331.38934799999697,331.38934799999697,331.5901942999917,331.9654199000215,2,0,0.5659333000076003,None,331.967962499999,331.9857991000172,331.9857991000172,332.47264490003,332.974621500005,332.956482700014,332.95656510000117,332.974621500005,,333.65894659998594,,,,,,,,,,,,,,,,,,,,,,,,,,,,,,,,,,,,,,,,,,,,,,,,,,,,,,,,,,,,,,,,,test002,motor,1,0,2024-07-30_21h02.34.136,ASRT_percept,2023.2.3,59.145034866442565,
,0,0,1,3,red,sequences/_practice_sequence_00.csv,,,,,,,,,,,0,0,0,0,0,60,60,82,,,,,,,,,,,,,,,,,,,,,333.6723814000143,,,,,,,,,,,,,333.6599126000074,333.6723814000143,333.6723814000143,333.8733426000108,334.11096399999224,3,1,0.425905000010971,None,334.11211380001623,334.1210448999773,334.1210448999773,334.6219640999916,335.1214381000027,335.1084546999773,335.10850999999093,335.1214381000027,335.8232163999928,335.8094785999856,,,,,,,,,,,,,,,,,,,,,,,,,,,,,,,,,,,,,,,,,,,,,,,,,,,,,,,,,,,,,,,,,test002,motor,1,0,2024-07-30_21h02.34.136,ASRT_percept,2023.2.3,59.145034866442565,
,0,0,1,3,red,sequences/_practice_sequence_00.csv,,,,,,,,,,,0,0,0,0,0,61,61,8,,,,,,,,,,,,,,,,,,,,,335.8232163999928,,,,,,,,,,,,,335.81079050002154,335.8232163999928,335.8232163999928,336.0215785999899,336.2892322000116,3,1,0.45774589997017756,None,336.2895561999758,336.3035965000163,336.3035965000163,336.8043524000095,337.30696780001745,337.2909330999828,337.29102090001106,337.30696780001745,,338.00501319998875,,,,,,,,,,,,,,,,,,,,,,,,,,,,,,,,,,,,,,,,,,,,,,,,,,,,,,,,,,,,,,,,,test002,motor,1,0,2024-07-30_21h02.34.136,ASRT_percept,2023.2.3,59.145034866442565,
,1,90,2,2,red,sequences/_practice_sequence_00.csv,,,,,,,,,,,0,0,0,0,0,62,62,43,,,,,,,,,,,,,,,,,,,,,338.02067340002395,,,,,,,,,,,,,338.00686600001063,338.02067340002395,338.02067340002395,338.22056609997526,338.5265813000151,2,1,0.492024399980437,None,338.52802610001527,338.53716250002617,338.53716250002617,339.0370163000189,339.5366074999911,339.52329510002164,339.5238659000024,339.5366074999911,340.2370644999901,340.22232160001295,,,,,,,,,,,,,,,,,,,,,,,,,,,,,,,,,,,,,,,,,,,,,,,,,,,,,,,,,,,,,,,,,test002,motor,1,0,2024-07-30_21h02.34.136,ASRT_percept,2023.2.3,59.145034866442565,
,0,0,1,3,red,sequences/_practice_sequence_00.csv,,,,,,,,,,,0,0,0,0,0,63,63,84,,,,,,,,,,,,,,,,,,,,,340.2370644999901,,,,,,,,,,,,,340.2238422000082,340.2370644999901,340.2370644999901,340.4366464000195,340.64877740002703,3,1,0.4026263999985531,None,340.6509314000141,340.6655794000253,340.6655794000253,341.15559630002826,341.65273199998774,341.6368464999832,341.63687440002104,341.65273199998774,342.35415129998,342.33860540000023,,,,,,,,,,,,,,,,,,,,,,,,,,,,,,,,,,,,,,,,,,,,,,,,,,,,,,,,,,,,,,,,,test002,motor,1,0,2024-07-30_21h02.34.136,ASRT_percept,2023.2.3,59.145034866442565,
,2,180,3,1,red,sequences/_practice_sequence_00.csv,,,,,,,,,,,0,0,0,0,0,64,64,76,,,,,,,,,,,,,,,,,,,,,342.35415129998,,,,,,,,,,,,,342.33979060000274,342.35415129998,342.35415129998,342.5711065999931,342.84387119999155,1,1,0.481236900028307,None,342.8458437999943,342.8616251000203,342.8616251000203,343.3539345000172,343.8511615000316,343.83615550003015,343.83618879999267,343.8511615000316,344.55412260000594,344.5379419000237,,,,,,,,,,,,,,,,,,,,,,,,,,,,,,,,,,,,,,,,,,,,,,,,,,,,,,,,,,,,,,,,,test002,motor,1,0,2024-07-30_21h02.34.136,ASRT_percept,2023.2.3,59.145034866442565,
,3,270,0,4,red,sequences/_practice_sequence_00.csv,,,,,,,,,,,0,0,0,0,0,65,65,50,,,,,,,,,,,,,,,,,,,,,344.55412260000594,,,,,,,,,,,,,344.5403768999968,344.55412260000594,344.55412260000594,344.76805720000993,345.0422639999888,4,1,0.47709000000031665,None,345.0445056000026,345.05838950001635,345.05838950001635,345.5518831000081,346.0511360000237,346.0367440999835,346.0368566000252,346.0511360000237,346.7548421000247,346.73624860000564,,,,,,,,,,,,,,,,,,,,,,,,,,,,,,,,,,,,,,,,,,,,,,,,,,,,,,,,,,,,,,,,,test002,motor,1,0,2024-07-30_21h02.34.136,ASRT_percept,2023.2.3,59.145034866442565,
,1,90,2,2,red,sequences/_practice_sequence_00.csv,,,,,,,,,,,0,0,0,0,0,66,66,44,,,,,,,,,,,,,,,,,,,,,346.7548421000247,,,,,,,,,,,,,346.7380791999749,346.7548421000247,346.7548421000247,346.9706440999871,347.23994220001623,2,1,0.4671147000044584,None,347.2413380999933,347.2583509000251,347.2583509000251,347.7511895999778,348.2511943000136,348.2383286000113,348.2384287000168,348.2511943000136,348.95404979999876,348.9373350000242,,,,,,,,,,,,,,,,,,,,,,,,,,,,,,,,,,,,,,,,,,,,,,,,,,,,,,,,,,,,,,,,,test002,motor,1,0,2024-07-30_21h02.34.136,ASRT_percept,2023.2.3,59.145034866442565,
,3,270,0,4,red,sequences/_practice_sequence_00.csv,,,,,,,,,,,0,0,0,0,0,67,67,57,,,,,,,,,,,,,,,,,,,,,348.95404979999876,,,,,,,,,,,,,348.9387540000025,348.95404979999876,348.95404979999876,349.1680680999998,349.40667240001494,3,0,0.44023160001961514,None,349.4081918000011,349.444146200025,349.444146200025,349.9176976000308,350.416845300002,350.4018062999821,350.4018876000191,350.416845300002,351.1163264000206,351.1033504999941,,,,,,,,,,,,,,,,,,,,,,,,,,,,,,,,,,,,,,,,,,,,,,,,,,,,,,,,,,,,,,,,,test002,motor,1,0,2024-07-30_21h02.34.136,ASRT_percept,2023.2.3,59.145034866442565,
,3,270,0,4,red,sequences/_practice_sequence_00.csv,,,,,,,,,,,0,0,0,0,0,68,68,48,,,,,,,,,,,,,,,,,,,,,351.1163264000206,,,,,,,,,,,,,351.10468290001154,351.1163264000206,351.1163264000206,351.3164148000069,351.5555974000017,4,1,0.42365489999065176,None,351.55696930002887,351.56722580001224,351.56722580001224,352.06698230002075,352.5665693000192,352.5538392000017,352.55387890001293,352.5665693000192,353.2664773000288,353.25150930002565,,,,,,,,,,,,,,,,,,,,,,,,,,,,,,,,,,,,,,,,,,,,,,,,,,,,,,,,,,,,,,,,,test002,motor,1,0,2024-07-30_21h02.34.136,ASRT_percept,2023.2.3,59.145034866442565,
,2,180,3,1,red,sequences/_practice_sequence_00.csv,,,,,,,,,,,0,0,0,0,0,69,69,52,,,,,,,,,,,,,,,,,,,,,353.2664773000288,,,,,,,,,,,,,353.2534185000113,353.2664773000288,353.2664773000288,353.46542989998125,353.8039350999752,1,1,0.5264619000372477,None,353.80490909999935,353.81501339998795,353.81501339998795,354.31635129998904,354.8164001000114,354.79968719999306,354.7997067000251,354.8164001000114,,355.50203550001606,,,,,,,,,,,,,,,,,,,,,,,,,,,,,,,,,,,,,,,,,,,,,,,,,,,,,,,,,,,,,,,,,test002,motor,1,0,2024-07-30_21h02.34.136,ASRT_percept,2023.2.3,59.145034866442565,
,1,90,2,2,red,sequences/_practice_sequence_00.csv,,,,,,,,,,,0,0,0,0,0,70,70,7,,,,,,,,,,,,,,,,,,,,,355.51527590001933,,,,,,,,,,,,,355.503880299977,355.51527590001933,355.51527590001933,355.71614889998455,356.0658080999856,2,1,0.5450028000050224,None,356.06703789997846,356.08132320002187,356.08132320002187,356.58164119999856,357.08179129997734,357.06811709998874,357.06818459997885,357.08179129997734,357.7813779999851,357.7685878999764,,,,,,,,,,,,,,,,,,,,,,,,,,,,,,,,,,,,,,,,,,,,,,,,,,,,,,,,,,,,,,,,,test002,motor,1,0,2024-07-30_21h02.34.136,ASRT_percept,2023.2.3,59.145034866442565,
,1,90,2,2,red,sequences/_practice_sequence_00.csv,,,,,,,,,,,0,0,0,0,0,71,71,67,,,,,,,,,,,,,,,,,,,,,357.7813779999851,,,,,,,,,,,,,357.7702145000221,357.7813779999851,357.7813779999851,357.9811850999831,358.289837600023,1,0,0.5000406000181101,None,358.2914648000151,358.3102653999813,358.3102653999813,358.7980939000263,359.2988829999813,359.2819224999985,359.28196839999873,359.2988829999813,,359.9981615000288,,,,,,,,,,,,,,,,,,,,,,,,,,,,,,,,,,,,,,,,,,,,,,,,,,,,,,,,,,,,,,,,,test002,motor,1,0,2024-07-30_21h02.34.136,ASRT_percept,2023.2.3,59.145034866442565,
,2,180,3,1,red,sequences/_practice_sequence_00.csv,,,,,,,,,,,0,0,0,0,0,72,72,32,,,,,,,,,,,,,,,,,,,,,360.01394239999354,,,,,,,,,,,,,359.99953680002363,360.01394239999354,360.01394239999354,360.2142222999828,360.53781369997887,1,1,0.5125712999724783,None,360.53929679997964,360.55327259999467,360.55327259999467,361.04831909999484,361.5456478000269,361.5322313000215,361.53227500000503,361.5456478000269,362.25017559999833,362.23245280003175,,,,,,,,,,,,,,,,,,,,,,,,,,,,,,,,,,,,,,,,,,,,,,,,,,,,,,,,,,,,,,,,,test002,motor,1,0,2024-07-30_21h02.34.136,ASRT_percept,2023.2.3,59.145034866442565,
,2,180,3,1,red,sequences/_practice_sequence_00.csv,,,,,,,,,,,0,0,0,0,0,73,73,79,,,,,,,,,,,,,,,,,,,,,362.25017559999833,,,,,,,,,,,,,362.2335636999924,362.25017559999833,362.25017559999833,362.46387109998614,362.78592819999903,1,1,0.5290918999817222,None,362.7883472000249,362.8094950999948,362.8094950999948,363.29687690001447,363.79900060000364,363.7828212000313,363.7829030000139,363.79900060000364,,364.4969325999846,,,,,,,,,,,,,,,,,,,,,,,,,,,,,,,,,,,,,,,,,,,,,,,,,,,,,,,,,,,,,,,,,test002,motor,1,0,2024-07-30_21h02.34.136,ASRT_percept,2023.2.3,59.145034866442565,
,2,180,3,1,red,sequences/_practice_sequence_00.csv,,,,,,,,,,,0,0,0,0,0,74,74,39,,,,,,,,,,,,,,,,,,,,,364.51276700000744,,,,,,,,,,,,,364.4992556999787,364.51276700000744,364.51276700000744,364.71369770000456,365.0349773999769,1,1,0.513587900029961,None,365.03657210001256,365.04685049998807,365.04685049998807,365.5454208999872,366.0496112999972,366.03177870000945,366.0319042999763,366.0496112999972,,366.74647339998046,,,,,,,,,,,,,,,,,,,,,,,,,,,,,,,,,,,,,,,,,,,,,,,,,,,,,,,,,,,,,,,,,test002,motor,1,0,2024-07-30_21h02.34.136,ASRT_percept,2023.2.3,59.145034866442565,
,1,90,2,2,red,sequences/_practice_sequence_00.csv,,,,,,,,,,,0,0,0,0,0,75,75,12,,,,,,,,,,,,,,,,,,,,,366.7611114999745,,,,,,,,,,,,,366.7488838999998,366.7611114999745,366.7611114999745,366.96180699998513,367.25069140002597,2,1,0.4809695000294596,None,367.25135039997986,367.2625783000258,367.2625783000258,367.760838599992,368.26169200002914,368.25045160000445,368.25052559998585,368.26169200002914,368.96092959999805,368.9473648000276,,,,,,,,,,,,,,,,,,,,,,,,,,,,,,,,,,,,,,,,,,,,,,,,,,,,,,,,,,,,,,,,,test002,motor,1,0,2024-07-30_21h02.34.136,ASRT_percept,2023.2.3,59.145034866442565,
,2,180,3,1,red,sequences/_practice_sequence_00.csv,,,,,,,,,,,0,0,0,0,0,76,76,10,,,,,,,,,,,,,,,,,,,,,368.96092959999805,,,,,,,,,,,,,368.94907740002964,368.96092959999805,368.96092959999805,369.16115790000185,369.4298197000171,1,1,0.45980559999588877,None,369.4303890999872,369.44418039999437,369.44418039999437,369.9431094999891,370.44645980000496,370.43146270001307,370.4315103000263,370.44645980000496,,371.14410710002994,,,,,,,,,,,,,,,,,,,,,,,,,,,,,,,,,,,,,,,,,,,,,,,,,,,,,,,,,,,,,,,,,test002,motor,1,0,2024-07-30_21h02.34.136,ASRT_percept,2023.2.3,59.145034866442565,
,1,90,2,2,red,sequences/_practice_sequence_00.csv,,,,,,,,,,,0,0,0,0,0,77,77,75,,,,,,,,,,,,,,,,,,,,,371.15987229999155,,,,,,,,,,,,,371.1455723000108,371.15987229999155,371.15987229999155,371.3608314000303,371.6630215999903,2,1,0.49810620001517236,None,371.66339150001295,371.67610400001286,371.67610400001286,372.17709419998573,372.6799984999816,372.66393219999736,372.6639878000133,372.6799984999816,,373.37564719998045,,,,,,,,,,,,,,,,,,,,,,,,,,,,,,,,,,,,,,,,,,,,,,,,,,,,,,,,,,,,,,,,,test002,motor,1,0,2024-07-30_21h02.34.136,ASRT_percept,2023.2.3,59.145034866442565,
,2,180,3,1,red,sequences/_practice_sequence_00.csv,,,,,,,,,,,0,0,0,0,0,78,78,55,,,,,,,,,,,,,,,,,,,,,373.3923385000089,,,,,,,,,,,,,373.3762196000316,373.3923385000089,373.3923385000089,373.59298970003147,373.84571590000996,1,1,0.4476097000297159,None,373.8463033000007,373.8589609999908,373.8589609999908,374.3602690999978,374.858777299989,374.84446709998883,374.8445619000122,374.858777299989,375.5593912000186,375.54512690001866,,,,,,,,,,,,,,,,,,,,,,,,,,,,,,,,,,,,,,,,,,,,,,,,,,,,,,,,,,,,,,,,,test002,motor,1,0,2024-07-30_21h02.34.136,ASRT_percept,2023.2.3,59.145034866442565,
,1,90,2,2,red,sequences/_practice_sequence_00.csv,,,,,,,,,,,0,0,0,0,0,79,79,81,,,,,,,,,,,,,,,,,,,,,375.5593912000186,,,,,,,,,,,,,375.5466509999824,375.5593912000186,375.5593912000186,375.75801520003006,376.11391860002186,2,1,0.5432666999986395,None,376.11611110001104,376.1278088000254,376.1278088000254,376.62448040000163,377.1255171999801,377.11224099999527,377.1123374000308,377.1255171999801,377.824657500023,377.811627499992,,,,,,,,,,,,,,,,,,,,,,,,,,,,,,,,,,,,,,,,,,,,,,,,,,,,,,,,,,,,,,,,,test002,motor,1,0,2024-07-30_21h02.34.136,ASRT_percept,2023.2.3,59.145034866442565,
,1,90,2,2,red,sequences/_practice_sequence_00.csv,,,,,,,,,,,0,0,0,0,0,80,80,1,,,,,,,,,,,,,,,,,,,,,377.824657500023,,,,,,,,,,,,,377.8128397000255,377.824657500023,377.824657500023,378.0253733000136,378.33122829999775,2,1,0.49513110000407323,None,378.3323710000259,378.34878030000255,378.34878030000255,378.84267069998896,379.3429094000021,379.32759760000044,379.3276544000255,379.3429094000021,,380.04188400000567,,,,,,,,,,,,,,,,,,,,,,,,,,,,,,,,,,,,,,,,,,,,,,,,,,,,,,,,,,,,,,,,,test002,motor,1,0,2024-07-30_21h02.34.136,ASRT_percept,2023.2.3,59.145034866442565,
,2,180,3,1,red,sequences/_practice_sequence_00.csv,,,,,,,,,,,0,0,0,0,0,81,81,31,,,,,,,,,,,,,,,,,,,,,380.05802310002036,,,,,,,,,,,,,380.0432584999944,380.05802310002036,380.05802310002036,380.2576865000301,380.53389999998035,1,1,0.46753319998970255,None,380.53539440000895,380.55866550002247,380.55866550002247,381.0411615999765,381.54035369999474,381.5260135999997,381.5260628000251,381.54035369999474,382.23954340000637,382.22615719999885,,,,,,,,,,,,,,,,,,,,,,,,,,,,,,,,,,,,,,,,,,,,,,,,,,,,,,,,,,,,,,,,,test002,motor,1,0,2024-07-30_21h02.34.136,ASRT_percept,2023.2.3,59.145034866442565,
