practice_seq_files,orientation_degrees,orientation_index,correct_answer_index,correct_answer_direction,arrow_color,init_random_block.thisRepN,init_random_block.thisTrialN,init_random_block.thisN,init_random_block.thisIndex,practice_blocks.thisRepN,practice_blocks.thisTrialN,practice_blocks.thisN,practice_blocks.thisIndex,practice_trials.thisRepN,practice_trials.thisTrialN,practice_trials.thisN,practice_trials.thisIndex,thisRow.t,notes,welcomescreen.started,spaceship.started,welcometext.started,welcome_end.started,welcomescreen.stopped,welcome_end.keys,welcome_end.rt,welcome_end.duration,pratice_instruction.started,spaceship_rotated.started,rotation_instruction.started,key_resp_2.started,pratice_instruction.stopped,key_resp_2.keys,key_resp_2.rt,key_resp_2.duration,pre_section.started,pre_section.stopped,trial.started,arrowhead.started,key_resp.started,arrowhead.stopped,trial.stopped,key_resp.keys,key_resp.corr,fixation_practice.started,cross.started,feedback_text.started,cross.stopped,feedback_text.stopped,fixation_practice.stopped,RSI.started,text_2.started,text_2.stopped,RSI.stopped,key_resp.stopped,key_resp.rt,key_resp.duration,post_section.started,participant,session,learning_type,seqID,date,expName,psychopyVersion,frameRate,expStart,
,,,,,,,,,,,,,,,,,,,,0.042516799876466393,0.24166679987683892,0.24166679987683892,0.24166679987683892,326.9993941998109,space,326.7437058999203,None,,,,,,,,,,,,,,,,,,,,,,,,,,,,,,,,009227,001,percept,1,2024-07-22_22h47.45.255,ASRT_percept,2023.2.3,None,2024-07-22 22h48.10.887553 +0800,
,,,,,,,,,,,,,,,,,,,,,,,,,,,,327.02134039998055,327.0293355998583,327.0293355998583,327.0293355998583,328.57597330003045,space,1.5411885001230985,None,,,,,,,,,,,,,,,,,,,,,,,,009227,001,percept,1,2024-07-22_22h47.45.255,ASRT_percept,2023.2.3,None,2024-07-22 22h48.10.887553 +0800,
sequences/009227_practice_sequence_01.csv,180,2,3,1,red,,,,,0,0,0,1,0,0,0,42,328.605478100013,,,,,,,,,,,,,,,,,,328.5833276999183,328.5836753998883,328.6007590999361,328.605478100013,328.605478100013,328.80327519983985,329.08381289988756,None,0,329.0842126000207,329.1118428998161,329.1118428998161,329.4139028999489,329.71401309990324,329.7044946998358,329.7045163998846,329.71401309990324,330.4142046999186,330.40470859990455,,,,,009227,001,percept,1,2024-07-22_22h47.45.255,ASRT_percept,2023.2.3,None,2024-07-22 22h48.10.887553 +0800,
sequences/009227_practice_sequence_01.csv,180,2,3,1,red,,,,,0,0,0,1,0,1,1,26,330.4142046999186,,,,,,,,,,,,,,,,,,,,330.4050119998865,330.4142046999186,330.4142046999186,330.6143451000098,330.90488529996946,None,0,330.90512260003015,330.9143977998756,330.9143977998756,331.3936902999412,331.693938100012,331.68393229995854,331.6839592999313,331.693938100012,,332.3840146998409,330.9143977998756,,,,009227,001,percept,1,2024-07-22_22h47.45.255,ASRT_percept,2023.2.3,None,2024-07-22 22h48.10.887553 +0800,
sequences/009227_practice_sequence_01.csv,0,0,1,3,red,,,,,0,0,0,1,0,2,2,29,332.39394809980877,,,,,,,,,,,,,,,,,,,,332.38433179981075,332.39394809980877,332.39394809980877,332.59402199997567,332.7649664999917,space,0,332.76541969995014,332.777344299946,332.777344299946,333.0747599999886,333.37531109992415,333.3661074999254,333.3661364999134,333.37531109992415,,334.0667479999829,,0.3675330998376012,None,,009227,001,percept,1,2024-07-22_22h47.45.255,ASRT_percept,2023.2.3,None,2024-07-22 22h48.10.887553 +0800,
sequences/009227_practice_sequence_01.csv,270,3,0,4,red,,,,,0,0,0,1,0,3,3,57,334.07665760000236,,,,,,,,,,,,,,,,,,,,334.067135799909,334.07665760000236,334.07665760000236,334.27667939988896,334.5669911999721,None,0,334.5673601999879,334.5826577998232,334.5826577998232,334.8771448000334,335.17803409998305,335.1690436999779,335.169084899826,335.17803409998305,,335.8704099999741,,,,,009227,001,percept,1,2024-07-22_22h47.45.255,ASRT_percept,2023.2.3,None,2024-07-22 22h48.10.887553 +0800,
sequences/009227_practice_sequence_01.csv,270,3,0,4,red,,,,,0,0,0,1,0,4,4,1,335.8825793999713,,,,,,,,,,,,,,,,,,,,335.87117169983685,335.8825793999713,335.8825793999713,336.0803261999972,336.370564899873,None,0,336.37113550002687,336.3830802999437,336.3830802999437,336.69727909984067,336.9913011000026,336.98230629996397,336.98235940001905,336.9913011000026,337.69325569993816,337.6824234998785,,,,,009227,001,percept,1,2024-07-22_22h47.45.255,ASRT_percept,2023.2.3,None,2024-07-22 22h48.10.887553 +0800,
sequences/009227_practice_sequence_01.csv,180,2,3,1,red,,,,,0,0,0,1,0,5,5,49,337.69325569993816,,,,,,,,,,,,,,,,,,,,337.68321009981446,337.69325569993816,337.69325569993816,337.891273799818,338.1805890998803,None,0,338.18103319988586,338.19595249998383,338.19595249998383,338.4918027999811,338.7899064999074,338.78143919981085,338.7814904998522,338.7899064999074,339.4883957998827,339.4788689999841,338.19595249998383,,,,009227,001,percept,1,2024-07-22_22h47.45.255,ASRT_percept,2023.2.3,None,2024-07-22 22h48.10.887553 +0800,
sequences/009227_practice_sequence_01.csv,0,0,1,3,red,,,,,0,0,0,1,0,6,6,54,339.4883957998827,,,,,,,,,,,,,,,,,,,,339.47923569986597,339.4883957998827,339.4883957998827,339.6883971998468,339.92959859990515,4,0,339.92997399996966,339.93929050001316,339.93929050001316,340.23861019988544,340.5386313998606,340.5291656998452,340.5291895000264,340.5386313998606,,341.2299700998701,,0.433617000002414,None,,009227,001,percept,1,2024-07-22_22h47.45.255,ASRT_percept,2023.2.3,None,2024-07-22 22h48.10.887553 +0800,
sequences/009227_practice_sequence_01.csv,180,2,3,1,red,,,,,0,0,0,1,0,7,7,50,341.2399792999495,,,,,,,,,,,,,,,,,,,,341.230354399886,341.2399792999495,341.2399792999495,341.4392863998655,341.72944119991735,None,0,341.7297127000056,341.73944039992057,341.73944039992057,342.0393607998267,342.3394346998539,342.3302172999829,342.3302493998781,342.3394346998539,343.04006749996915,343.0304957998451,,,,,009227,001,percept,1,2024-07-22_22h47.45.255,ASRT_percept,2023.2.3,None,2024-07-22 22h48.10.887553 +0800,
sequences/009227_practice_sequence_01.csv,270,3,0,4,red,,,,,0,0,0,1,0,8,8,52,343.04006749996915,,,,,,,,,,,,,,,,,,,,343.0308273998089,343.04006749996915,343.04006749996915,343.2401442998089,343.53034689999186,None,0,343.53062710002996,343.54034559987485,343.54034559987485,343.84041459998116,344.1404380998574,344.13113919994794,344.13117409986444,344.1404380998574,344.84085779986344,344.83119329996407,,,,,009227,001,percept,1,2024-07-22_22h47.45.255,ASRT_percept,2023.2.3,None,2024-07-22 22h48.10.887553 +0800,
sequences/009227_practice_sequence_01.csv,270,3,0,4,red,,,,,0,0,0,1,0,9,9,43,344.84085779986344,,,,,,,,,,,,,,,,,,,,344.8315202998929,344.84085779986344,344.84085779986344,345.04085099999793,345.33147459989414,None,0,345.33172919997014,345.3411588999443,345.3411588999443,345.64124089991674,345.94127439986914,345.93169499980286,345.931717999978,345.94127439986914,,346.6318608999718,345.3411588999443,,,,009227,001,percept,1,2024-07-22_22h47.45.255,ASRT_percept,2023.2.3,None,2024-07-22 22h48.10.887553 +0800,
sequences/009227_practice_sequence_01.csv,90,1,2,2,red,,,,,0,0,0,1,0,10,10,41,346.6418779999949,,,,,,,,,,,,,,,,,,,,346.63219679985195,346.6418779999949,346.6418779999949,346.8417212998029,347.1318429999519,None,0,347.1320851999335,347.14186309999786,347.14186309999786,347.44185890001245,347.74203799990937,347.7326583999675,347.7326884998474,347.74203799990937,348.44260660000145,348.43293050001375,,,,,009227,001,percept,1,2024-07-22_22h47.45.255,ASRT_percept,2023.2.3,None,2024-07-22 22h48.10.887553 +0800,
sequences/009227_practice_sequence_01.csv,90,1,2,2,red,,,,,0,0,0,1,0,11,11,51,348.44260660000145,,,,,,,,,,,,,,,,,,,,348.4332620999776,348.44260660000145,348.44260660000145,348.6425556000322,348.93274159985594,None,0,348.93297729990445,348.94280630000867,348.94280630000867,349.24283799994737,349.54306749999523,349.53360969992355,349.5336314998567,349.54306749999523,350.24347839993425,350.2338153999299,,,,,009227,001,percept,1,2024-07-22_22h47.45.255,ASRT_percept,2023.2.3,None,2024-07-22 22h48.10.887553 +0800,
sequences/009227_practice_sequence_01.csv,0,0,1,3,red,,,,,0,0,0,1,0,12,12,19,350.24347839993425,,,,,,,,,,,,,,,,,,,,350.2341463000048,350.24347839993425,350.24347839993425,350.44346349989064,350.5943141998723,2,0,350.5946384000126,350.60366549994797,350.60366549994797,350.9037992998492,351.2039422998205,351.1946813999675,351.1947212999221,351.2039422998205,351.90441549988464,351.8949109998066,,0.3419327000156045,None,,009227,001,percept,1,2024-07-22_22h47.45.255,ASRT_percept,2023.2.3,None,2024-07-22 22h48.10.887553 +0800,
sequences/009227_practice_sequence_01.csv,90,1,2,2,red,,,,,0,0,0,1,0,13,13,64,351.90441549988464,,,,,,,,,,,,,,,,,,,,351.8952138000168,351.90441549988464,351.90441549988464,352.1045317000244,352.3949861000292,None,0,352.395218399819,352.4046739998739,352.4046739998739,352.70480659999885,353.00478550000116,352.9962452999316,352.996267599985,353.00478550000116,353.70557289989665,353.6962299000006,352.4046739998739,,,,009227,001,percept,1,2024-07-22_22h47.45.255,ASRT_percept,2023.2.3,None,2024-07-22 22h48.10.887553 +0800,
sequences/009227_practice_sequence_01.csv,0,0,1,3,red,,,,,0,0,0,1,0,14,14,7,353.70557289989665,,,,,,,,,,,,,,,,,,,,353.6965693999082,353.70557289989665,353.70557289989665,353.90554169984534,354.19601059984416,None,0,354.1962595998775,354.20561409997754,354.20561409997754,354.50562640000135,354.8059052999597,354.7964164998848,354.7964376998134,354.8059052999597,355.5062277999241,355.49667619983666,354.20561409997754,,,,009227,001,percept,1,2024-07-22_22h47.45.255,ASRT_percept,2023.2.3,None,2024-07-22 22h48.10.887553 +0800,
sequences/009227_practice_sequence_01.csv,180,2,3,1,red,,,,,0,0,0,1,0,15,15,44,355.5062277999241,,,,,,,,,,,,,,,,,,,,355.49699579994194,355.5062277999241,355.5062277999241,355.70628549996763,355.99677349999547,None,0,355.9970157998614,356.00653959997,356.00653959997,356.3068795998115,356.6069508998189,356.59754509991035,356.59756789985113,356.6069508998189,357.3073776999954,357.29778349981643,,,,,009227,001,percept,1,2024-07-22_22h47.45.255,ASRT_percept,2023.2.3,None,2024-07-22 22h48.10.887553 +0800,
sequences/009227_practice_sequence_01.csv,270,3,0,4,red,,,,,0,0,0,1,0,16,16,27,357.3073776999954,,,,,,,,,,,,,,,,,,,,357.2980545000173,357.3073776999954,357.3073776999954,357.507453299826,357.7977423998527,None,0,357.7979418998584,357.8076561000198,357.8076561000198,358.1275990998838,358.4278822999913,358.4182976000011,358.4183141000103,358.4278822999913,,359.118588199839,,,,,009227,001,percept,1,2024-07-22_22h47.45.255,ASRT_percept,2023.2.3,None,2024-07-22 22h48.10.887553 +0800,
sequences/009227_practice_sequence_01.csv,180,2,3,1,red,,,,,0,0,0,1,0,17,17,71,359.1281623998657,,,,,,,,,,,,,,,,,,,,359.11901959986426,359.1281623998657,359.1281623998657,359.32839129981585,359.618554999819,None,0,359.61874750000425,359.6286490999628,359.6286490999628,359.92865999997593,360.22869200003333,360.2193200998008,360.219336199807,360.22869200003333,,360.9195306999609,,,,,009227,001,percept,1,2024-07-22_22h47.45.255,ASRT_percept,2023.2.3,None,2024-07-22 22h48.10.887553 +0800,
sequences/009227_practice_sequence_01.csv,90,1,2,2,red,,,,,0,0,0,1,0,18,18,84,360.9293788999785,,,,,,,,,,,,,,,,,,,,360.91978299990296,360.9293788999785,360.9293788999785,361.12929599988274,361.41977369994856,None,0,361.41998509992845,361.4295417999383,361.4295417999383,361.72960649989545,362.0298903998919,362.02026819996536,362.0202845998574,362.0298903998919,362.7302820000332,362.720611799974,,,,,009227,001,percept,1,2024-07-22_22h47.45.255,ASRT_percept,2023.2.3,None,2024-07-22 22h48.10.887553 +0800,
sequences/009227_practice_sequence_01.csv,90,1,2,2,red,,,,,0,0,0,1,0,19,19,37,362.7302820000332,,,,,,,,,,,,,,,,,,,,362.7208481999114,362.7302820000332,362.7302820000332,362.93019309989177,363.2205144998152,None,0,363.2208249999676,363.2304065998178,363.2304065998178,363.5305076998193,363.83074339991435,363.8213341999799,363.8213599999435,363.83074339991435,364.531164099928,364.52158800000325,,,,,009227,001,percept,1,2024-07-22_22h47.45.255,ASRT_percept,2023.2.3,None,2024-07-22 22h48.10.887553 +0800,
sequences/009227_practice_sequence_01.csv,0,0,1,3,red,,,,,0,0,0,1,0,20,20,22,364.531164099928,,,,,,,,,,,,,,,,,,,,364.5218646998983,364.531164099928,364.531164099928,364.73128019995056,365.02146740001626,None,0,365.0216675000265,365.0314090999309,365.0314090999309,365.3315033998806,365.6316235999111,365.622212999966,365.62222939985804,365.6316235999111,366.33212549984455,366.3225850998424,,,,,009227,001,percept,1,2024-07-22_22h47.45.255,ASRT_percept,2023.2.3,None,2024-07-22 22h48.10.887553 +0800,
sequences/009227_practice_sequence_01.csv,180,2,3,1,red,,,,,0,0,0,1,0,21,21,34,366.33212549984455,,,,,,,,,,,,,,,,,,,,366.32280780002475,366.33212549984455,366.33212549984455,366.5322689998429,366.82252419996075,None,0,366.822725799866,366.83225669991225,366.83225669991225,367.13235539989546,367.4326127998065,367.42314339987934,367.42315919999965,367.4326127998065,,368.1232403998729,366.83225669991225,,,,009227,001,percept,1,2024-07-22_22h47.45.255,ASRT_percept,2023.2.3,None,2024-07-22 22h48.10.887553 +0800,
sequences/009227_practice_sequence_01.csv,270,3,0,4,red,,,,,0,0,0,1,0,22,22,35,368.1329790998716,,,,,,,,,,,,,,,,,,,,368.1234848999884,368.1329790998716,368.1329790998716,,368.2035660999827,1,0,368.2038051998243,368.21701479982585,368.21701479982585,368.5133514998015,368.81348769995384,368.80393289984204,368.80394889996387,368.81348769995384,369.51376169989817,369.50421369983815,,0.06146749993786216,None,,009227,001,percept,1,2024-07-22_22h47.45.255,ASRT_percept,2023.2.3,None,2024-07-22 22h48.10.887553 +0800,
sequences/009227_practice_sequence_01.csv,180,2,3,1,red,,,,,0,0,0,1,0,23,23,61,369.51376169989817,,,,,,,,,,,,,,,,,,,,369.5044489998836,369.51376169989817,369.51376169989817,369.7138892998919,369.7946367999539,2,0,369.7948664999567,369.80870819999836,369.80870819999836,370.1041069999337,370.40426440001465,370.39475749991834,370.39477230003104,370.40426440001465,371.10465589980595,371.09503049985506,,0.2791901999153197,None,,009227,001,percept,1,2024-07-22_22h47.45.255,ASRT_percept,2023.2.3,None,2024-07-22 22h48.10.887553 +0800,
sequences/009227_practice_sequence_01.csv,180,2,3,1,red,,,,,0,0,0,1,0,24,24,28,371.10465589980595,,,,,,,,,,,,,,,,,,,,371.09526129998267,371.10465589980595,371.10465589980595,371.3046555998735,371.355792599963,4,0,371.35603159992024,371.37335000000894,371.37335000000894,371.66483669984154,371.9651093999855,371.9553846998606,371.9554031000007,371.9651093999855,372.66531399986707,372.6557534998283,,0.248830399941653,None,,009227,001,percept,1,2024-07-22_22h47.45.255,ASRT_percept,2023.2.3,None,2024-07-22 22h48.10.887553 +0800,
sequences/009227_practice_sequence_01.csv,270,3,0,4,red,,,,,0,0,0,1,0,25,25,18,372.66531399986707,,,,,,,,,,,,,,,,,,,,372.65601129992865,372.66531399986707,372.66531399986707,372.8655589998234,373.1069192998111,1,0,373.1071835998446,373.12373339990154,373.12373339990154,373.41589099983685,373.7159603999462,373.70633459999226,373.70636409986764,373.7159603999462,,374.4065603998024,,0.4406063000205904,None,,009227,001,percept,1,2024-07-22_22h47.45.255,ASRT_percept,2023.2.3,None,2024-07-22 22h48.10.887553 +0800,
sequences/009227_practice_sequence_01.csv,90,1,2,2,red,,,,,0,0,0,1,0,26,26,73,374.41650189994834,,,,,,,,,,,,,,,,,,,,374.40680529992096,374.41650189994834,374.41650189994834,374.6164481998421,374.9066129999701,None,0,374.90681289997883,374.9167102999054,374.9167102999054,375.2168017998338,375.51680949982256,375.5073050998617,375.50732129998505,375.51680949982256,,376.20750329992734,,,,,009227,001,percept,1,2024-07-22_22h47.45.255,ASRT_percept,2023.2.3,None,2024-07-22 22h48.10.887553 +0800,
sequences/009227_practice_sequence_01.csv,270,3,0,4,red,,,,,0,0,0,1,0,27,27,4,376.21744919987395,,,,,,,,,,,,,,,,,,,,376.2077436998952,376.21744919987395,376.21744919987395,376.41752019990236,376.70749739999883,None,0,376.7077858999837,376.71749269985594,376.71749269985594,377.01775099989027,377.3178218998946,377.30837979982607,377.3083962998353,377.3178218998946,,378.008538399823,,,,,009227,001,percept,1,2024-07-22_22h47.45.255,ASRT_percept,2023.2.3,None,2024-07-22 22h48.10.887553 +0800,
sequences/009227_practice_sequence_01.csv,180,2,3,1,red,,,,,0,0,0,1,0,28,28,11,378.0183094998356,,,,,,,,,,,,,,,,,,,,378.0088142999448,378.0183094998356,378.0183094998356,378.21839769999497,378.5088499998674,None,0,378.509115899913,378.5186457999516,378.5186457999516,378.81860919995233,379.11898889997974,379.10979709983803,379.10981439985335,379.11898889997974,379.8194350998383,379.8097426998429,,,,,009227,001,percept,1,2024-07-22_22h47.45.255,ASRT_percept,2023.2.3,None,2024-07-22 22h48.10.887553 +0800,
sequences/009227_practice_sequence_01.csv,90,1,2,2,red,,,,,0,0,0,1,0,29,29,65,379.8194350998383,,,,,,,,,,,,,,,,,,,,379.8099926998839,379.8194350998383,379.8194350998383,380.01946849981323,380.3100417999085,None,0,380.31023569987155,380.31949299992993,380.31949299992993,380.6196879998315,380.91976940003224,380.9101527999155,380.91016929992475,380.91976940003224,,381.61028529983014,380.31949299992993,,,,009227,001,percept,1,2024-07-22_22h47.45.255,ASRT_percept,2023.2.3,None,2024-07-22 22h48.10.887553 +0800,
sequences/009227_practice_sequence_01.csv,180,2,3,1,red,,,,,0,0,0,1,0,30,30,46,381.62018519989215,,,,,,,,,,,,,,,,,,,,381.61052879993804,381.62018519989215,381.62018519989215,381.8204546999186,382.0710640999023,2,0,382.0713579999283,382.09440599987283,382.09440599987283,382.38047319999896,382.6807750998996,382.6711378998589,382.6711538999807,382.6807750998996,383.38123339996673,383.37155029992573,,0.44457289995625615,None,,009227,001,percept,1,2024-07-22_22h47.45.255,ASRT_percept,2023.2.3,None,2024-07-22 22h48.10.887553 +0800,
sequences/009227_practice_sequence_01.csv,90,1,2,2,red,,,,,0,0,0,1,0,31,31,76,383.38123339996673,,,,,,,,,,,,,,,,,,,,383.3718061000109,383.38123339996673,383.38123339996673,383.581259700004,383.8714312999509,None,0,383.8716362998821,383.8814810998738,383.8814810998738,384.18153099995106,384.48167729983106,384.4722603999544,384.47227729996666,384.48167729983106,385.18212839984335,385.17261189990677,,,,,009227,001,percept,1,2024-07-22_22h47.45.255,ASRT_percept,2023.2.3,None,2024-07-22 22h48.10.887553 +0800,
sequences/009227_practice_sequence_01.csv,90,1,2,2,red,,,,,0,0,0,1,0,32,32,75,385.18212839984335,,,,,,,,,,,,,,,,,,,,385.1728397998959,385.18212839984335,385.18212839984335,385.3822533998173,385.5529707998503,2,1,385.5532139998395,385.5736002998892,385.5736002998892,385.86246019997634,386.16252140002325,386.1530585999135,386.1530742999166,386.16252140002325,386.8630539998412,386.85334109980613,,0.3636562000028789,None,,009227,001,percept,1,2024-07-22_22h47.45.255,ASRT_percept,2023.2.3,None,2024-07-22 22h48.10.887553 +0800,
sequences/009227_practice_sequence_01.csv,180,2,3,1,red,,,,,0,0,0,1,0,33,33,83,386.8630539998412,,,,,,,,,,,,,,,,,,,,386.8535781998653,386.8630539998412,386.8630539998412,387.06296919984743,387.35330899991095,None,0,387.35353620001115,387.36333309998736,387.36333309998736,387.6632856000215,387.96358829992823,387.9540369999595,387.9540534999687,387.96358829992823,388.66398239997216,388.65436079981737,,,,,009227,001,percept,1,2024-07-22_22h47.45.255,ASRT_percept,2023.2.3,None,2024-07-22 22h48.10.887553 +0800,
sequences/009227_practice_sequence_01.csv,180,2,3,1,red,,,,,0,0,0,1,0,34,34,79,388.66398239997216,,,,,,,,,,,,,,,,,,,,388.65459659998305,388.66398239997216,388.66398239997216,388.8638857998885,389.11491549992934,1,1,389.1151552000083,389.13945249980316,389.13945249980316,389.42435629991814,389.72439139988273,389.7148483998608,389.71486479998566,389.72439139988273,,390.4149823000189,,0.44138590013608336,None,,009227,001,percept,1,2024-07-22_22h47.45.255,ASRT_percept,2023.2.3,None,2024-07-22 22h48.10.887553 +0800,
sequences/009227_practice_sequence_01.csv,270,3,0,4,red,,,,,0,0,0,1,0,35,35,58,390.42490679980256,,,,,,,,,,,,,,,,,,,,390.415245299926,390.42490679980256,390.42490679980256,390.624962199945,390.91560279997066,None,0,390.915813999949,390.9252428000327,390.9252428000327,391.22548159980215,391.5253584999591,391.51582659990527,391.5158445998095,391.5253584999591,,392.2159559999127,,,,,009227,001,percept,1,2024-07-22_22h47.45.255,ASRT_percept,2023.2.3,None,2024-07-22 22h48.10.887553 +0800,
sequences/009227_practice_sequence_01.csv,270,3,0,4,red,,,,,0,0,0,1,0,36,36,59,392.2258861998562,,,,,,,,,,,,,,,,,,,,392.21619979990646,392.2258861998562,392.2258861998562,392.42571390001103,392.7161679000128,None,0,392.7163833999075,392.72629479994066,392.72629479994066,393.02627299982123,393.3264555998612,393.31690440000966,393.31692099990323,393.3264555998612,394.0268368998077,394.01725329994224,,,,,009227,001,percept,1,2024-07-22_22h47.45.255,ASRT_percept,2023.2.3,None,2024-07-22 22h48.10.887553 +0800,
sequences/009227_practice_sequence_01.csv,90,1,2,2,red,,,,,0,0,0,1,0,37,37,12,394.0268368998077,,,,,,,,,,,,,,,,,,,,394.0174938000273,394.0268368998077,394.0268368998077,394.2268749999348,394.2875659998972,2,1,394.287818999961,394.3123237998225,394.3123237998225,394.5972130999435,394.8971084000077,394.8878258999903,394.88784099998884,394.8971084000077,395.5976831000298,395.5881429000292,,0.254652600036934,None,,009227,001,percept,1,2024-07-22_22h47.45.255,ASRT_percept,2023.2.3,None,2024-07-22 22h48.10.887553 +0800,
sequences/009227_practice_sequence_01.csv,0,0,1,3,red,,,,,0,0,0,1,0,38,38,77,395.5976831000298,,,,,,,,,,,,,,,,,,,,395.58836629986763,395.5976831000298,395.5976831000298,395.7977266998496,396.088003099896,None,0,396.08821700001135,396.0979616998229,396.0979616998229,396.39799129986204,396.6981700998731,396.688804499805,396.6888199998066,396.6981700998731,397.3985535998363,397.388952099951,,,,,009227,001,percept,1,2024-07-22_22h47.45.255,ASRT_percept,2023.2.3,None,2024-07-22 22h48.10.887553 +0800,
sequences/009227_practice_sequence_01.csv,270,3,0,4,red,,,,,0,0,0,1,0,39,39,3,397.3985535998363,,,,,,,,,,,,,,,,,,,,397.3891998999752,397.3985535998363,397.3985535998363,397.5986440998968,397.8889279998839,None,0,397.88923939992674,397.89894729992375,397.89894729992375,398.1989682998974,398.49924639984965,398.489694399992,398.4897109000012,398.49924639984965,399.1994445999153,399.189889599802,,,,,009227,001,percept,1,2024-07-22_22h47.45.255,ASRT_percept,2023.2.3,None,2024-07-22 22h48.10.887553 +0800,
sequences/009227_practice_sequence_01.csv,180,2,3,1,red,,,,,0,0,0,1,0,40,40,2,399.1994445999153,,,,,,,,,,,,,,,,,,,,399.1901396999601,399.1994445999153,399.1994445999153,399.3996536999475,399.6899081999436,None,0,399.6901102999691,399.6998633998446,399.6998633998446,400.00002779997885,400.30011640000157,400.2906119998079,400.2906286998186,400.30011640000157,401.0004131998867,400.9909665999003,,,,,009227,001,percept,1,2024-07-22_22h47.45.255,ASRT_percept,2023.2.3,None,2024-07-22 22h48.10.887553 +0800,
sequences/009227_practice_sequence_01.csv,0,0,1,3,red,,,,,0,0,0,1,0,41,41,33,401.0004131998867,,,,,,,,,,,,,,,,,,,,400.99119929992594,401.0004131998867,401.0004131998867,401.2005831999704,401.49085539998487,None,0,401.4910997999832,401.50084119988605,401.50084119988605,401.80088669992983,402.101130399853,402.0914250998758,402.09144019987434,402.101130399853,402.8015103000216,402.7917571000289,,,,,009227,001,percept,1,2024-07-22_22h47.45.255,ASRT_percept,2023.2.3,None,2024-07-22 22h48.10.887553 +0800,
sequences/009227_practice_sequence_01.csv,90,1,2,2,red,,,,,0,0,0,1,0,42,42,21,402.8015103000216,,,,,,,,,,,,,,,,,,,,402.792010899866,402.8015103000216,402.8015103000216,403.00157089997083,403.092192400014,4,0,403.09245669981465,403.1226792000234,403.1226792000234,403.41173149994574,403.71176759991795,403.7022933999542,403.7023107998539,403.71176759991795,,404.4025017998647,,0.28762440010905266,None,,009227,001,percept,1,2024-07-22_22h47.45.255,ASRT_percept,2023.2.3,None,2024-07-22 22h48.10.887553 +0800,
sequences/009227_practice_sequence_01.csv,180,2,3,1,red,,,,,0,0,0,1,0,43,43,60,404.4122984998394,,,,,,,,,,,,,,,,,,,,404.40274910000153,404.4122984998394,404.4122984998394,404.6124434999656,404.7438434998039,2,0,404.7440857999027,404.7707425998524,404.7707425998524,405.052633699961,405.3528511999175,405.3433244000189,405.3433399000205,405.3528511999175,,406.04347859998234,,0.32465700013563037,None,,009227,001,percept,1,2024-07-22_22h47.45.255,ASRT_percept,2023.2.3,None,2024-07-22 22h48.10.887553 +0800,
sequences/009227_practice_sequence_01.csv,180,2,3,1,red,,,,,0,0,0,1,0,44,44,13,406.0533366999589,,,,,,,,,,,,,,,,,,,,406.04379029991105,406.0533366999589,406.0533366999589,406.25341579993255,406.3144618999213,2,0,406.3146978998557,406.33887390000746,406.33887390000746,406.62346919998527,406.9236749999691,406.91413889988326,406.91415470000356,406.9236749999691,407.6240149999503,407.61427429993637,,0.2601697000209242,None,,009227,001,percept,1,2024-07-22_22h47.45.255,ASRT_percept,2023.2.3,None,2024-07-22 22h48.10.887553 +0800,
sequences/009227_practice_sequence_01.csv,0,0,1,3,red,,,,,0,0,0,1,0,45,45,31,407.6240149999503,,,,,,,,,,,,,,,,,,,,407.61449999990873,407.6240149999503,407.6240149999503,407.8240848998539,408.1144477999769,None,0,408.11465130001307,408.1242684000172,408.1242684000172,408.4245449998416,408.72466919990256,408.71501639997587,408.71503219986334,408.72466919990256,409.4248673999682,409.41534559987485,,,,,009227,001,percept,1,2024-07-22_22h47.45.255,ASRT_percept,2023.2.3,None,2024-07-22 22h48.10.887553 +0800,
sequences/009227_practice_sequence_01.csv,90,1,2,2,red,,,,,0,0,0,1,0,46,46,23,409.4248673999682,,,,,,,,,,,,,,,,,,,,409.41558549995534,409.4248673999682,409.4248673999682,409.6249517998658,409.91518220002763,None,0,409.91546209994704,409.925290199928,409.925290199928,410.2254372998141,410.5254180999473,410.51597879990004,410.5159944999032,410.5254180999473,,411.2164266000036,,,,,009227,001,percept,1,2024-07-22_22h47.45.255,ASRT_percept,2023.2.3,None,2024-07-22 22h48.10.887553 +0800,
sequences/009227_practice_sequence_01.csv,90,1,2,2,red,,,,,0,0,0,1,0,47,47,56,411.2260659998283,,,,,,,,,,,,,,,,,,,,411.2166989999823,411.2260659998283,411.2260659998283,411.4261395998765,411.7165719999466,None,0,411.7167908998672,411.72629269980825,411.72629269980825,412.05637250002474,412.35654670000076,412.34697129996493,412.34698699996807,412.35654670000076,,413.0471061998978,,,,,009227,001,percept,1,2024-07-22_22h47.45.255,ASRT_percept,2023.2.3,None,2024-07-22 22h48.10.887553 +0800,
sequences/009227_practice_sequence_01.csv,180,2,3,1,red,,,,,0,0,0,1,0,48,48,80,413.0570325998124,,,,,,,,,,,,,,,,,,,,413.0473850998096,413.0570325998124,413.0570325998124,,413.1678739998024,2,0,413.16829589987174,413.20955040003173,413.20955040003173,413.4970368000213,413.7972876999993,413.7875625998713,413.7875798998866,413.7972876999993,,414.487766899867,,0.10414499999023974,None,,009227,001,percept,1,2024-07-22_22h47.45.255,ASRT_percept,2023.2.3,None,2024-07-22 22h48.10.887553 +0800,
sequences/009227_practice_sequence_01.csv,270,3,0,4,red,,,,,0,0,0,1,0,49,49,48,414.49777859984897,,,,,,,,,,,,,,,,,,,,414.48801169986837,414.49777859984897,414.49777859984897,414.6977693999652,414.9880498999264,None,0,414.98825679998845,414.99818669981323,414.99818669981323,415.3083056998439,415.6082507998217,415.5986493998207,415.59866539994255,415.6082507998217,,416.2987457998097,,,,,009227,001,percept,1,2024-07-22_22h47.45.255,ASRT_percept,2023.2.3,None,2024-07-22 22h48.10.887553 +0800,
sequences/009227_practice_sequence_01.csv,0,0,1,3,red,,,,,0,0,0,1,0,50,50,67,416.30853829998523,,,,,,,,,,,,,,,,,,,,416.29898269986734,416.30853829998523,416.30853829998523,416.5087637999095,416.79899739986286,None,0,416.7991939999629,416.80901279998943,416.80901279998943,417.1191392999608,417.41933359997347,417.40973069984466,417.4097471998539,417.41933359997347,418.1195004999172,418.1100618999917,,,,,009227,001,percept,1,2024-07-22_22h47.45.255,ASRT_percept,2023.2.3,None,2024-07-22 22h48.10.887553 +0800,
sequences/009227_practice_sequence_01.csv,0,0,1,3,red,,,,,0,0,0,1,0,51,51,0,418.1195004999172,,,,,,,,,,,,,,,,,,,,418.11030109995045,418.1195004999172,418.1195004999172,418.3196637998335,418.6101009999402,None,0,418.61034529982135,418.62004780001007,418.62004780001007,418.95023039984517,419.25018089986406,419.2407569999341,419.2407734999433,419.25018089986406,419.9505622999277,419.9410043999087,,,,,009227,001,percept,1,2024-07-22_22h47.45.255,ASRT_percept,2023.2.3,None,2024-07-22 22h48.10.887553 +0800,
sequences/009227_practice_sequence_01.csv,270,3,0,4,red,,,,,0,0,0,1,0,52,52,81,419.9505622999277,,,,,,,,,,,,,,,,,,,,419.94122759997845,419.9505622999277,419.9505622999277,420.1506999998819,420.4408313999884,None,0,420.44102439982817,420.4508850998245,420.4508850998245,420.76100319996476,421.0611941998359,421.0517193998676,421.0517360998783,421.0611941998359,421.7615176998079,421.7518159998581,,,,,009227,001,percept,1,2024-07-22_22h47.45.255,ASRT_percept,2023.2.3,None,2024-07-22 22h48.10.887553 +0800,
sequences/009227_practice_sequence_01.csv,270,3,0,4,red,,,,,0,0,0,1,0,53,53,14,421.7615176998079,,,,,,,,,,,,,,,,,,,,421.75204949988984,421.7615176998079,421.7615176998079,421.9616564998869,422.25191669980995,None,0,422.2520924999844,422.26195740001276,422.26195740001276,422.5721034000162,422.8720300998539,422.8626155999955,422.8626307998784,422.8720300998539,423.57251899992116,423.56291219987907,422.26195740001276,,,,009227,001,percept,1,2024-07-22_22h47.45.255,ASRT_percept,2023.2.3,None,2024-07-22 22h48.10.887553 +0800,
sequences/009227_practice_sequence_01.csv,180,2,3,1,red,,,,,0,0,0,1,0,54,54,9,423.57251899992116,,,,,,,,,,,,,,,,,,,,423.56315539986826,423.57251899992116,423.57251899992116,423.77263399981894,423.88347719982266,4,0,423.88372919987887,423.9293914998416,423.9293914998416,424.21274839993566,424.512916599866,424.5033295999747,424.50334639986977,424.512916599866,425.2132828999311,425.2036339000333,,0.30864769988693297,None,,009227,001,percept,1,2024-07-22_22h47.45.255,ASRT_percept,2023.2.3,None,2024-07-22 22h48.10.887553 +0800,
sequences/009227_practice_sequence_01.csv,270,3,0,4,red,,,,,0,0,0,1,0,55,55,8,425.2132828999311,,,,,,,,,,,,,,,,,,,,425.203858199995,425.2132828999311,425.2132828999311,,425.32403829996474,1,0,425.32427300000563,425.3619456999004,425.3619456999004,425.64360069995746,425.9438157998957,425.93415159988217,425.9341692000162,425.9438157998957,,426.6343707998749,,0.10774099989794195,None,,009227,001,percept,1,2024-07-22_22h47.45.255,ASRT_percept,2023.2.3,None,2024-07-22 22h48.10.887553 +0800,
sequences/009227_practice_sequence_01.csv,270,3,0,4,red,,,,,0,0,0,1,0,56,56,30,426.64425759995356,,,,,,,,,,,,,,,,,,,,426.634645299986,426.64425759995356,426.64425759995356,426.8443467998877,427.1344198998995,None,0,427.1346479000058,427.1445143998135,427.1445143998135,427.44454259984195,427.7446611998603,427.73501749988645,427.7350337000098,427.7446611998603,,428.43520829989575,,,,,009227,001,percept,1,2024-07-22_22h47.45.255,ASRT_percept,2023.2.3,None,2024-07-22 22h48.10.887553 +0800,
sequences/009227_practice_sequence_01.csv,0,0,1,3,red,,,,,0,0,0,1,0,57,57,53,428.4452652998734,,,,,,,,,,,,,,,,,,,,428.43551829992794,428.4452652998734,428.4452652998734,428.6451112998184,428.93538039992563,None,0,428.9355793998111,428.9454120998271,428.9454120998271,429.28549919999205,429.58551019988954,429.5760313998908,429.5760480999015,429.58551019988954,,430.27620339998975,,,,,009227,001,percept,1,2024-07-22_22h47.45.255,ASRT_percept,2023.2.3,None,2024-07-22 22h48.10.887553 +0800,
sequences/009227_practice_sequence_01.csv,180,2,3,1,red,,,,,0,0,0,1,0,58,58,68,430.28597859991714,,,,,,,,,,,,,,,,,,,,430.27646810002625,430.28597859991714,430.28597859991714,430.4862362998538,430.5074646999128,3,0,430.5077016998548,430.5465605999343,430.5465605999343,430.83639599988237,431.136565499939,431.12697079987265,431.1269867999945,431.136565499939,431.83697479986586,431.827316199895,,0.2194350000936538,None,,009227,001,percept,1,2024-07-22_22h47.45.255,ASRT_percept,2023.2.3,None,2024-07-22 22h48.10.887553 +0800,
sequences/009227_practice_sequence_01.csv,0,0,1,3,red,,,,,0,0,0,1,0,59,59,62,431.83697479986586,,,,,,,,,,,,,,,,,,,,431.8275406998582,431.83697479986586,431.83697479986586,432.0370674999431,432.16771199996583,1,0,432.16794870002195,432.2072407999076,432.2072407999076,432.49713879986666,432.79747490002774,432.78786439984106,432.78787989984266,432.79747490002774,433.4976250999607,433.4881155998446,,0.3246542999986559,None,,009227,001,percept,1,2024-07-22_22h47.45.255,ASRT_percept,2023.2.3,None,2024-07-22 22h48.10.887553 +0800,
sequences/009227_practice_sequence_01.csv,270,3,0,4,red,,,,,0,0,0,1,0,60,60,38,433.4976250999607,,,,,,,,,,,,,,,,,,,,433.4884095999878,433.4976250999607,433.4976250999607,433.69791639992036,433.708469199948,4,1,433.70876579987817,433.7589402999729,433.7589402999729,434.04813819983974,434.3481826998759,434.3386850999668,434.3387032998726,434.3481826998759,435.0486758998595,435.039059799863,,0.2077092998661101,None,,009227,001,percept,1,2024-07-22_22h47.45.255,ASRT_percept,2023.2.3,None,2024-07-22 22h48.10.887553 +0800,
sequences/009227_practice_sequence_01.csv,90,1,2,2,red,,,,,0,0,0,1,0,61,61,17,435.0486758998595,,,,,,,,,,,,,,,,,,,,435.0392918998841,435.0486758998595,435.0486758998595,435.2487278999761,435.4893951998092,2,1,435.4896549999248,435.53200609982014,435.53200609982014,435.8191321999766,436.1191932999063,436.10963329998776,436.1096491999924,436.1191932999063,,436.80996249988675,,0.4321007998660207,None,,009227,001,percept,1,2024-07-22_22h47.45.255,ASRT_percept,2023.2.3,None,2024-07-22 22h48.10.887553 +0800,
sequences/009227_practice_sequence_01.csv,180,2,3,1,red,,,,,0,0,0,1,0,62,62,69,436.81952119991183,,,,,,,,,,,,,,,,,,,,436.8102306998335,436.81952119991183,436.81952119991183,,436.8501854999922,2,0,436.85041179996915,436.8915758000221,436.8915758000221,437.1799306999892,437.480031499872,437.47035079984926,437.4703666998539,437.480031499872,,438.1704394000117,,0.02156020002439618,None,,009227,001,percept,1,2024-07-22_22h47.45.255,ASRT_percept,2023.2.3,None,2024-07-22 22h48.10.887553 +0800,
sequences/009227_practice_sequence_01.csv,0,0,1,3,red,,,,,0,0,0,1,0,63,63,72,438.1804125998169,,,,,,,,,,,,,,,,,,,,438.17075659986585,438.1804125998169,438.1804125998169,,438.21155859995633,2,0,438.21178779983893,438.254938099999,438.254938099999,438.54037819989026,438.8406175998971,438.8310511999298,438.8310684999451,438.8406175998971,439.54096839996055,439.5312918999698,,0.028343900106847286,None,,009227,001,percept,1,2024-07-22_22h47.45.255,ASRT_percept,2023.2.3,None,2024-07-22 22h48.10.887553 +0800,
sequences/009227_practice_sequence_01.csv,270,3,0,4,red,,,,,0,0,0,1,0,64,64,6,439.54096839996055,,,,,,,,,,,,,,,,,,,,439.53152640000917,439.54096839996055,439.54096839996055,439.74133570003323,439.75183480000123,1,0,439.7520790998824,439.7987398998812,439.7987398998812,440.08131699985825,440.3813715998549,440.3718383999076,440.3718550999183,440.3813715998549,441.0817483998835,441.0721584998537,,0.20461100013926625,None,,009227,001,percept,1,2024-07-22_22h47.45.255,ASRT_percept,2023.2.3,None,2024-07-22 22h48.10.887553 +0800,
sequences/009227_practice_sequence_01.csv,90,1,2,2,red,,,,,0,0,0,1,0,65,65,63,441.0817483998835,,,,,,,,,,,,,,,,,,,,441.0723890999798,441.0817483998835,441.0817483998835,441.2817534999922,441.3225801999215,3,0,441.3228174999822,441.36862399987876,441.36862399987876,441.65230820002034,441.9523226998281,441.942662499845,441.94267829996534,441.9523226998281,442.65268429997377,442.64305219985545,,0.23914550011977553,None,,009227,001,percept,1,2024-07-22_22h47.45.255,ASRT_percept,2023.2.3,None,2024-07-22 22h48.10.887553 +0800,
sequences/009227_practice_sequence_01.csv,270,3,0,4,red,,,,,0,0,0,1,0,66,66,25,442.65268429997377,,,,,,,,,,,,,,,,,,,,442.6432899998035,442.65268429997377,442.65268429997377,442.8528086999431,442.91398399998434,4,1,442.9142846998293,442.9583117000293,442.9583117000293,443.2430081998464,443.5432599999476,443.5335225998424,443.5335401999764,443.5432599999476,444.24351900001056,444.233860099921,,0.2604714999906719,None,,009227,001,percept,1,2024-07-22_22h47.45.255,ASRT_percept,2023.2.3,None,2024-07-22 22h48.10.887553 +0800,
sequences/009227_practice_sequence_01.csv,270,3,0,4,red,,,,,0,0,0,1,0,67,67,47,444.24351900001056,,,,,,,,,,,,,,,,,,,,444.2340972998645,444.24351900001056,444.24351900001056,444.4435576000251,444.73389359982684,None,0,444.7340900998097,444.7438922999427,444.7438922999427,445.0439447998069,445.3641885998659,445.3546114999335,445.3546281999443,445.3641885998659,446.0645474998746,446.05501000001095,,,,,009227,001,percept,1,2024-07-22_22h47.45.255,ASRT_percept,2023.2.3,None,2024-07-22 22h48.10.887553 +0800,
sequences/009227_practice_sequence_01.csv,270,3,0,4,red,,,,,0,0,0,1,0,68,68,39,446.0645474998746,,,,,,,,,,,,,,,,,,,,446.0552527999971,446.0645474998746,446.0645474998746,446.2646235998254,446.5547030000016,None,0,446.5548946999479,446.56478519993834,446.56478519993834,446.88482369994745,447.185139299836,447.1755341999233,447.1755493998062,447.185139299836,447.88548109983094,447.87587999994867,,,,,009227,001,percept,1,2024-07-22_22h47.45.255,ASRT_percept,2023.2.3,None,2024-07-22 22h48.10.887553 +0800,
sequences/009227_practice_sequence_01.csv,180,2,3,1,red,,,,,0,0,0,1,0,69,69,15,447.88548109983094,,,,,,,,,,,,,,,,,,,,447.8760986998677,447.88548109983094,447.88548109983094,448.08556759986095,448.3757610998582,None,0,448.3759488000069,448.3857461998705,448.3857461998705,448.6859022998251,448.98582599987276,448.97626949986443,448.97628599987365,448.98582599987276,,449.6764401998371,,,,,009227,001,percept,1,2024-07-22_22h47.45.255,ASRT_percept,2023.2.3,None,2024-07-22 22h48.10.887553 +0800,
sequences/009227_practice_sequence_01.csv,90,1,2,2,red,,,,,0,0,0,1,0,70,70,45,449.6863349999767,,,,,,,,,,,,,,,,,,,,449.67668929998763,449.6863349999767,449.6863349999767,449.88656000001356,450.17673809989356,None,0,450.1769350999966,450.1868402999826,450.1868402999826,450.48690849984996,450.80707769980654,450.7975683999248,450.7975843998138,450.80707769980654,451.50742659997195,451.4977295999415,,,,,009227,001,percept,1,2024-07-22_22h47.45.255,ASRT_percept,2023.2.3,None,2024-07-22 22h48.10.887553 +0800,
sequences/009227_practice_sequence_01.csv,90,1,2,2,red,,,,,0,0,0,1,0,71,71,55,451.50742659997195,,,,,,,,,,,,,,,,,,,,451.4979562999215,451.50742659997195,451.50742659997195,451.70748129999265,451.9977291999385,None,0,451.9979212998878,452.00770159997046,452.00770159997046,452.3777515999973,452.67784060002305,452.66856079990976,452.66857640002854,452.67784060002305,453.37833849992603,453.36883879988454,,,,,009227,001,percept,1,2024-07-22_22h47.45.255,ASRT_percept,2023.2.3,None,2024-07-22 22h48.10.887553 +0800,
sequences/009227_practice_sequence_01.csv,0,0,1,3,red,,,,,0,0,0,1,0,72,72,5,453.37833849992603,,,,,,,,,,,,,,,,,,,,453.36906419997104,453.37833849992603,453.37833849992603,453.5783176999539,453.63953769998625,2,0,453.6397820999846,453.69305699993856,453.69305699993856,453.97862780001014,454.2789195999503,454.26938099996187,454.2693984999787,454.2789195999503,,454.9695506999269,,0.2546889001969248,None,,009227,001,percept,1,2024-07-22_22h47.45.255,ASRT_percept,2023.2.3,None,2024-07-22 22h48.10.887553 +0800,
sequences/009227_practice_sequence_01.csv,90,1,2,2,red,,,,,0,0,0,1,0,73,73,20,454.97928259987384,,,,,,,,,,,,,,,,,,,,454.96980049996637,454.97928259987384,454.97928259987384,455.1794163000304,455.4695377999451,None,0,455.4697308000177,455.4794689998962,455.4794689998962,455.80978809995577,456.10972029995173,456.1000711999368,456.10008699982427,456.10972029995173,,456.80039480002597,,,,,009227,001,percept,1,2024-07-22_22h47.45.255,ASRT_percept,2023.2.3,None,2024-07-22 22h48.10.887553 +0800,
sequences/009227_practice_sequence_01.csv,90,1,2,2,red,,,,,0,0,0,1,0,74,74,70,456.81017620000057,,,,,,,,,,,,,,,,,,,,456.8006344998721,456.81017620000057,456.81017620000057,457.0102708998602,457.30053919996135,None,0,457.30072499997914,457.3105962998234,457.3105962998234,457.6406067998614,457.9408837999217,457.93122989987023,457.9312460999936,457.9408837999217,458.6411899998784,458.6316192999948,,,,,009227,001,percept,1,2024-07-22_22h47.45.255,ASRT_percept,2023.2.3,None,2024-07-22 22h48.10.887553 +0800,
sequences/009227_practice_sequence_01.csv,180,2,3,1,red,,,,,0,0,0,1,0,75,75,36,458.6411899998784,,,,,,,,,,,,,,,,,,,,458.63185220002197,458.6411899998784,458.6411899998784,458.84123909985647,459.1316499998793,None,0,459.13187659997493,459.1412724999245,459.1412724999245,459.471617099829,459.7717871000059,459.76218899991363,459.76220599981025,459.7717871000059,460.4721516999416,460.46245039999485,459.1412724999245,,,,009227,001,percept,1,2024-07-22_22h47.45.255,ASRT_percept,2023.2.3,None,2024-07-22 22h48.10.887553 +0800,
sequences/009227_practice_sequence_01.csv,180,2,3,1,red,,,,,0,0,0,1,0,76,76,10,460.4721516999416,,,,,,,,,,,,,,,,,,,,460.46271579992026,460.4721516999416,460.4721516999416,460.67219539987855,460.9535660999827,4,0,460.95379929989576,461.00688559981063,461.00688559981063,461.29262480000034,461.59286909992807,461.5832960999105,461.5833121999167,461.59286909992807,462.2931225998327,462.2835724998731,,0.48047830001451075,None,,009227,001,percept,1,2024-07-22_22h47.45.255,ASRT_percept,2023.2.3,None,2024-07-22 22h48.10.887553 +0800,
sequences/009227_practice_sequence_01.csv,90,1,2,2,red,,,,,0,0,0,1,0,77,77,24,462.2931225998327,,,,,,,,,,,,,,,,,,,,462.2837957998272,462.2931225998327,462.2931225998327,462.4931757999584,462.78336329991,None,0,462.78355429996736,462.79346509999596,462.79346509999596,463.12339009996504,463.4237265998963,463.41422269982286,463.41423929994926,463.4237265998963,464.1240844000131,464.11452269996516,,,,,009227,001,percept,1,2024-07-22_22h47.45.255,ASRT_percept,2023.2.3,None,2024-07-22 22h48.10.887553 +0800,
sequences/009227_practice_sequence_01.csv,90,1,2,2,red,,,,,0,0,0,1,0,78,78,16,464.1240844000131,,,,,,,,,,,,,,,,,,,,464.1147505999543,464.1240844000131,464.1240844000131,464.3240939998068,464.6144436998293,None,0,464.6146497998852,464.62422110000625,464.62422110000625,464.95452039991505,465.254516299814,465.24512129998766,465.24513909989037,465.254516299814,,465.9455255998764,,,,,009227,001,percept,1,2024-07-22_22h47.45.255,ASRT_percept,2023.2.3,None,2024-07-22 22h48.10.887553 +0800,
sequences/009227_practice_sequence_01.csv,0,0,1,3,red,,,,,0,0,0,1,0,79,79,32,465.95512689999305,,,,,,,,,,,,,,,,,,,,465.9457670999691,465.95512689999305,465.95512689999305,466.15502969990484,466.4457993998658,None,0,466.44599959999323,466.45538969989866,466.45538969989866,466.7855477000121,467.0857112999074,467.07600459991954,467.0760196999181,467.0857112999074,,467.7760870999191,,,,,009227,001,percept,1,2024-07-22_22h47.45.255,ASRT_percept,2023.2.3,None,2024-07-22 22h48.10.887553 +0800,
sequences/009227_practice_sequence_01.csv,0,0,1,3,red,,,,,0,0,0,1,0,80,80,82,467.78612059983425,,,,,,,,,,,,,,,,,,,,467.77635369985364,467.78612059983425,467.78612059983425,467.98612769995816,468.1773311998695,3,1,468.1775573999621,468.2328259998467,468.2328259998467,468.51635969989,468.81636469997466,468.8069101998117,468.80692559992895,468.81636469997466,469.5169604998082,469.50728399981745,,0.39034779998473823,None,,009227,001,percept,1,2024-07-22_22h47.45.255,ASRT_percept,2023.2.3,None,2024-07-22 22h48.10.887553 +0800,
sequences/009227_practice_sequence_01.csv,180,2,3,1,red,,,,,0,0,0,1,0,81,81,78,469.5169604998082,,,,,,,,,,,,,,,,,,,,469.5075428998098,469.5169604998082,469.5169604998082,469.7169535998255,469.9782273999881,2,0,469.97848959988914,470.04370289994404,470.04370289994404,470.3273616998922,470.62736799987033,470.6180852998514,470.6181015998591,470.62736799987033,471.3279065999668,471.3182573998347,,0.4604325999971479,None,,009227,001,percept,1,2024-07-22_22h47.45.255,ASRT_percept,2023.2.3,None,2024-07-22 22h48.10.887553 +0800,
sequences/009227_practice_sequence_01.csv,90,1,2,2,red,,,,,0,0,0,1,0,82,82,66,471.3279065999668,,,,,,,,,,,,,,,,,,,,471.31848909985274,471.3279065999668,471.3279065999668,471.5279718998354,471.6201050998643,1,0,471.62036429997534,471.6823892998509,471.6823892998509,471.96830589999445,472.26832899986766,472.2587583998684,472.2587746998761,472.26832899986766,472.9687051998917,472.95903519983403,,0.2891754999291152,None,,009227,001,percept,1,2024-07-22_22h47.45.255,ASRT_percept,2023.2.3,None,2024-07-22 22h48.10.887553 +0800,
sequences/009227_practice_sequence_01.csv,90,1,2,2,red,,,,,0,0,0,1,0,83,83,74,472.9687051998917,,,,,,,,,,,,,,,,,,,,472.9592552999966,472.9687051998917,472.9687051998917,473.16898119985126,473.26051940000616,2,1,473.26077159983106,473.31938679981977,473.31938679981977,473.60905299987644,473.9093153998256,473.8998101998586,473.899826399982,473.9093153998256,474.6096041998826,474.6001197998412,,0.2878759999293834,None,,009227,001,percept,1,2024-07-22_22h47.45.255,ASRT_percept,2023.2.3,None,2024-07-22 22h48.10.887553 +0800,
sequences/009227_practice_sequence_01.csv,270,3,0,4,red,,,,,0,0,0,1,0,84,84,40,474.6096041998826,,,,,,,,,,,,,,,,,,,,474.60037239990197,474.6096041998826,474.6096041998826,474.80965329986066,474.89063779986463,3,0,474.8908934998326,474.9569202000275,474.9569202000275,475.2398430998437,475.5400745999068,475.53054769989103,475.5305647999048,475.5400745999068,,476.2309018999804,,0.28022330021485686,None,,009227,001,percept,1,2024-07-22_22h47.45.255,ASRT_percept,2023.2.3,None,2024-07-22 22h48.10.887553 +0800,
,,,,,,,,,,,,,,,,,,,,,,,,,,,,,,,,,,,,,,,,,,,,,,,,,,,,,,,,,,476.230969700031,,,,,,,,,,
