motor_testing_seq_files,orientation_degrees,orientation_index,correct_answer_index,correct_answer_direction,arrow_color,init_random_block.thisRepN,init_random_block.thisTrialN,init_random_block.thisN,init_random_block.thisIndex,practice_blocks.thisRepN,practice_blocks.thisTrialN,practice_blocks.thisN,practice_blocks.thisIndex,learning_trials.thisRepN,learning_trials.thisTrialN,learning_trials.thisN,learning_trials.thisIndex,motor_testing_trials.thisRepN,motor_testing_trials.thisTrialN,motor_testing_trials.thisN,motor_testing_trials.thisIndex,motor_testing_loop.thisRepN,motor_testing_loop.thisTrialN,motor_testing_loop.thisN,motor_testing_loop.thisIndex,thisRow.t,notes,welcomescreen.started,spaceship.started,welcometext.started,welcome_end.started,welcomescreen.stopped,welcome_end.keys,welcome_end.rt,welcome_end.duration,pratice_instruction.started,spaceship_rotated.started,rotation_instruction.started,key_resp_2.started,pratice_instruction.stopped,key_resp_2.keys,key_resp_2.rt,key_resp_2.duration,learning_instruction.started,spaceship_rotated01.started,rotation_instruction01.started,key_resp_02.started,learning_instruction.stopped,key_resp_02.keys,key_resp_02.rt,key_resp_02.duration,motor_testing_instruction.started,spaceship3.started,motor_testing_instruction_text.started,key_resp_3.started,motor_testing_instruction.stopped,key_resp_3.keys,key_resp_3.rt,key_resp_3.duration,pre_section.started,pre_section.stopped,trial.started,arrowhead.started,key_resp.started,arrowhead.stopped,trial.stopped,key_resp.keys,key_resp.corr,fixation.started,cross_2.started,cross_2.stopped,fixation.stopped,RSI.started,text_2.started,text_2.stopped,RSI.stopped,key_resp.stopped,key_resp.rt,key_resp.duration,participant,session,learning_type,seqID,date,expName,psychopyVersion,frameRate,expStart,
,,,,,,,,,,,,,,,,,,,,,,,,,,,,0.0025853000042843632,0.06819260000338545,0.06819260000338545,0.06819260000338545,2.6378470999989077,space,2.5530982999989646,None,,,,,,,,,,,,,,,,,,,,,,,,,,,,,,,,,,,,,,,,,,,,,695234,001,motor,1,2024-07-27_10h27.07.178,ASRT_percept,2023.2.3,59.98174155675152,2024-07-27 10h27.25.253172 +0800,
,,,,,,,,,,,,,,,,,,,,,,,,,,,,,,,,,,,,2.6516762000028393,2.6628025000027264,2.6628025000027264,2.6628025000027264,3.421279800000775,space,0.7437930000014603,None,,,,,,,,,,,,,,,,,,,,,,,,,,,,,,,,,,,,,695234,001,motor,1,2024-07-27_10h27.07.178,ASRT_percept,2023.2.3,59.98174155675152,2024-07-27 10h27.25.253172 +0800,
,,,,,,,,,,,,,,,,,,,,,,,,,,,,,,,,,,,,,,,,,,,,3.433036499998707,3.4531151999981375,3.4531151999981375,3.4531151999981375,6.005504599997948,space,2.5377642000021297,None,,,,,,,,,,,,,,,,,,,,,,,,,,,,,695234,001,motor,1,2024-07-27_10h27.07.178,ASRT_percept,2023.2.3,59.98174155675152,2024-07-27 10h27.25.253172 +0800,
,,,,,,,,,,,,,,,,,,,,,,,,,,,,,,,,,,,,,,,,,,,,,,,,,,,,6.015202200003841,6.022820400001365,6.022820400001365,6.022820400001365,10.68748449999839,space,4.650370700001076,None,,,,,,,,,,,,,,,,,,,,,695234,001,motor,1,2024-07-27_10h27.07.178,ASRT_percept,2023.2.3,59.98174155675152,2024-07-27 10h27.25.253172 +0800,
sequences/695234_motortesting_sequence_00.csv,180,2,2,2,red,,,,,,,,,,,,,0,0,0,0,0,0,0,0,10.73043730000063,,,,,,,,,,,,,,,,,,,,,,,,,,,,,,,,,,10.70122270000138,10.701637300000584,10.725871000002371,10.73043730000063,10.73043730000063,10.933733500001836,11.21731279999949,None,0,11.217750000003434,11.233743500000855,11.367247100002714,11.351487100000668,11.351521700002195,11.367247100002714,12.067375300001004,12.051388799998676,,,,695234,001,motor,1,2024-07-27_10h27.07.178,ASRT_percept,2023.2.3,59.98174155675152,2024-07-27 10h27.25.253172 +0800,
sequences/695234_motortesting_sequence_00.csv,180,2,2,2,red,,,,,,,,,,,,,0,0,0,0,0,1,1,1,12.067375300001004,,,,,,,,,,,,,,,,,,,,,,,,,,,,,,,,,,,,12.051825100003043,12.067375300001004,12.067375300001004,12.26733349999995,12.551500800000213,None,0,12.551836099999491,12.567427499998303,12.700608799998008,12.684720400000515,12.684755599999335,12.700608799998008,13.40053330000228,13.384503599998425,12.567427499998303,,,695234,001,motor,1,2024-07-27_10h27.07.178,ASRT_percept,2023.2.3,59.98174155675152,2024-07-27 10h27.25.253172 +0800,
sequences/695234_motortesting_sequence_00.csv,90,1,1,3,red,,,,,,,,,,,,,0,0,0,0,0,2,2,2,13.40053330000228,,,,,,,,,,,,,,,,,,,,,,,,,,,,,,,,,,,,13.384918100004143,13.40053330000228,13.40053330000228,13.600540899999032,13.884387300000526,None,0,13.884690700004285,13.90046170000278,14.033579000002646,14.017971900000703,14.018003400000453,14.033579000002646,14.733640999998897,14.718161400000099,13.90046170000278,,,695234,001,motor,1,2024-07-27_10h27.07.178,ASRT_percept,2023.2.3,59.98174155675152,2024-07-27 10h27.25.253172 +0800,
sequences/695234_motortesting_sequence_00.csv,180,2,2,2,red,,,,,,,,,,,,,0,0,0,0,0,3,3,3,14.733640999998897,,,,,,,,,,,,,,,,,,,,,,,,,,,,,,,,,,,,14.718605900001421,14.733640999998897,14.733640999998897,14.933558400000038,15.217487400004757,None,0,15.217689600001904,15.233424900005048,15.366787500002829,15.351264900004026,15.351280599999882,15.366787500002829,16.06690019999951,16.05060550000053,15.233424900005048,,,695234,001,motor,1,2024-07-27_10h27.07.178,ASRT_percept,2023.2.3,59.98174155675152,2024-07-27 10h27.25.253172 +0800,
sequences/695234_motortesting_sequence_00.csv,270,3,3,1,red,,,,,,,,,,,,,0,0,0,0,0,4,4,4,16.06690019999951,,,,,,,,,,,,,,,,,,,,,,,,,,,,,,,,,,,,16.0508123000036,16.06690019999951,16.06690019999951,16.266836700000567,16.550956300001417,None,0,16.551181100003305,16.567212499998277,16.700237000004563,16.684033800003817,16.684064200002467,16.700237000004563,17.400229099999706,17.384217999999237,16.567212499998277,,,695234,001,motor,1,2024-07-27_10h27.07.178,ASRT_percept,2023.2.3,59.98174155675152,2024-07-27 10h27.25.253172 +0800,
sequences/695234_motortesting_sequence_00.csv,90,1,1,3,white,,,,,,,,,,,,,0,0,0,0,0,5,5,5,17.400229099999706,,,,,,,,,,,,,,,,,,,,,,,,,,,,,,,,,,,,17.384655699999712,17.400229099999706,17.400229099999706,17.60012909999932,17.883736800002225,None,0,17.88391650000267,17.900137800002994,18.03349800000433,18.017443800003093,18.017479599999206,18.03349800000433,18.73343730000488,18.717309999999998,17.900137800002994,,,695234,001,motor,1,2024-07-27_10h27.07.178,ASRT_percept,2023.2.3,59.98174155675152,2024-07-27 10h27.25.253172 +0800,
sequences/695234_motortesting_sequence_00.csv,180,2,2,2,red,,,,,,,,,,,,,0,0,0,0,0,6,6,6,18.73343730000488,,,,,,,,,,,,,,,,,,,,,,,,,,,,,,,,,,,,18.71790139999939,18.73343730000488,18.73343730000488,18.933292599998822,19.20082209999964,2,1,19.20113180000044,19.216856500002905,19.349853300001996,19.333919100005005,19.33393810000416,19.349853300001996,20.050045100004354,20.03422000000137,,0.4594900999945821,None,695234,001,motor,1,2024-07-27_10h27.07.178,ASRT_percept,2023.2.3,59.98174155675152,2024-07-27 10h27.25.253172 +0800,
sequences/695234_motortesting_sequence_00.csv,180,2,2,2,white,,,,,,,,,,,,,0,0,0,0,0,7,7,7,20.050045100004354,,,,,,,,,,,,,,,,,,,,,,,,,,,,,,,,,,,,20.034524700000475,20.050045100004354,20.050045100004354,20.24998890000279,20.367655800000648,2,1,20.36790689999907,20.383298900000227,20.516796600000816,20.500688300002366,20.500717700000678,20.516796600000816,21.21666450000339,21.200282999998308,,0.3068834000005154,None,695234,001,motor,1,2024-07-27_10h27.07.178,ASRT_percept,2023.2.3,59.98174155675152,2024-07-27 10h27.25.253172 +0800,
sequences/695234_motortesting_sequence_00.csv,0,0,0,4,red,,,,,,,,,,,,,0,0,0,0,0,8,8,8,21.21666450000339,,,,,,,,,,,,,,,,,,,,,,,,,,,,,,,,,,,,21.20051770000282,21.21666450000339,21.21666450000339,21.416564899998775,21.700299299998733,None,0,21.700473000004422,21.71672060000128,21.849975700002688,21.833707600002526,21.83372380000219,21.849975700002688,22.54999410000164,22.533834400004707,21.71672060000128,,,695234,001,motor,1,2024-07-27_10h27.07.178,ASRT_percept,2023.2.3,59.98174155675152,2024-07-27 10h27.25.253172 +0800,
sequences/695234_motortesting_sequence_00.csv,270,3,3,1,white,,,,,,,,,,,,,0,0,0,0,0,9,9,9,22.54999410000164,,,,,,,,,,,,,,,,,,,,,,,,,,,,,,,,,,,,22.534225600000354,22.54999410000164,22.54999410000164,22.749810699999216,23.033555000001797,None,0,23.03372500000114,23.04992840000341,23.183117200002016,23.16711000000214,23.16712969999935,23.183117200002016,23.883165500003088,23.86727619999874,23.04992840000341,,,695234,001,motor,1,2024-07-27_10h27.07.178,ASRT_percept,2023.2.3,59.98174155675152,2024-07-27 10h27.25.253172 +0800,
sequences/695234_motortesting_sequence_00.csv,270,3,3,1,red,,,,,,,,,,,,,0,0,0,0,0,10,10,10,23.883165500003088,,,,,,,,,,,,,,,,,,,,,,,,,,,,,,,,,,,,23.867750099998375,23.883165500003088,23.883165500003088,24.083041500001855,24.36697880000429,None,0,24.367167500000505,24.38303040000028,24.516390500000853,24.500384200000553,24.500403099998948,24.516390500000853,25.216469099999813,25.200185100002273,24.38303040000028,,,695234,001,motor,1,2024-07-27_10h27.07.178,ASRT_percept,2023.2.3,59.98174155675152,2024-07-27 10h27.25.253172 +0800,
sequences/695234_motortesting_sequence_00.csv,0,0,0,4,white,,,,,,,,,,,,,0,0,0,0,0,11,11,11,25.216469099999813,,,,,,,,,,,,,,,,,,,,,,,,,,,,,,,,,,,,25.200456999999005,25.216469099999813,25.216469099999813,25.416474600002402,25.700333100001444,None,0,25.700594800000545,25.716497100002016,25.84980280000309,25.83352630000445,25.83354859999963,25.84980280000309,26.5497217000011,26.533396200000425,25.716497100002016,,,695234,001,motor,1,2024-07-27_10h27.07.178,ASRT_percept,2023.2.3,59.98174155675152,2024-07-27 10h27.25.253172 +0800,
sequences/695234_motortesting_sequence_00.csv,180,2,2,2,red,,,,,,,,,,,,,0,0,0,0,0,12,12,12,26.5497217000011,,,,,,,,,,,,,,,,,,,,,,,,,,,,,,,,,,,,26.533694700003252,26.5497217000011,26.5497217000011,26.749779900004796,27.033428900002036,None,0,27.033753000003344,27.049765600000683,27.183072300002095,27.16708450000442,27.167117900004087,27.183072300002095,27.88290219999908,27.86679880000156,27.049765600000683,,,695234,001,motor,1,2024-07-27_10h27.07.178,ASRT_percept,2023.2.3,59.98174155675152,2024-07-27 10h27.25.253172 +0800,
sequences/695234_motortesting_sequence_00.csv,90,1,1,3,white,,,,,,,,,,,,,0,0,0,0,0,13,13,13,27.88290219999908,,,,,,,,,,,,,,,,,,,,,,,,,,,,,,,,,,,,27.867157699998643,27.88290219999908,27.88290219999908,28.08303700000397,28.366683300002478,None,0,28.36691850000352,28.382851800000935,28.51623770000151,28.499903600000835,28.49991740000405,28.51623770000151,29.21630140000343,29.20014870000159,28.382851800000935,,,695234,001,motor,1,2024-07-27_10h27.07.178,ASRT_percept,2023.2.3,59.98174155675152,2024-07-27 10h27.25.253172 +0800,
sequences/695234_motortesting_sequence_00.csv,180,2,2,2,red,,,,,,,,,,,,,0,0,0,0,0,14,14,14,29.21630140000343,,,,,,,,,,,,,,,,,,,,,,,,,,,,,,,,,,,,29.20038360000035,29.21630140000343,29.21630140000343,29.416199999999662,29.700341499999922,None,0,29.700521099999605,29.716209999998682,29.849508300001617,29.833405900004436,29.833423399999447,29.849508300001617,30.549576900004467,30.533468800000264,29.716209999998682,,,695234,001,motor,1,2024-07-27_10h27.07.178,ASRT_percept,2023.2.3,59.98174155675152,2024-07-27 10h27.25.253172 +0800,
sequences/695234_motortesting_sequence_00.csv,180,2,2,2,white,,,,,,,,,,,,,0,0,0,0,0,15,15,15,30.549576900004467,,,,,,,,,,,,,,,,,,,,,,,,,,,,,,,,,,,,30.533969600001,30.549576900004467,30.549576900004467,30.74947190000239,31.033282100004726,None,0,31.033480900005088,31.04956740000489,31.18271470000036,31.167257000000973,31.167279000001145,31.18271470000036,31.882674899999984,31.866678300000785,31.04956740000489,,,695234,001,motor,1,2024-07-27_10h27.07.178,ASRT_percept,2023.2.3,59.98174155675152,2024-07-27 10h27.25.253172 +0800,
sequences/695234_motortesting_sequence_00.csv,90,1,1,3,red,,,,,,,,,,,,,0,0,0,0,0,16,16,16,31.882674899999984,,,,,,,,,,,,,,,,,,,,,,,,,,,,,,,,,,,,31.866984699998284,31.882674899999984,31.882674899999984,32.08274560000427,32.36629930000345,None,0,32.36658020000323,32.38273070000287,32.515995900001144,32.49987780000083,32.49990020000405,32.515995900001144,33.216126500003156,33.19993899999827,32.38273070000287,,,695234,001,motor,1,2024-07-27_10h27.07.178,ASRT_percept,2023.2.3,59.98174155675152,2024-07-27 10h27.25.253172 +0800,
sequences/695234_motortesting_sequence_00.csv,270,3,3,1,white,,,,,,,,,,,,,0,0,0,0,0,17,17,17,33.216126500003156,,,,,,,,,,,,,,,,,,,,,,,,,,,,,,,,,,,,33.2003138,33.216126500003156,33.216126500003156,33.41579250000359,33.69995370000106,None,0,33.700181500003964,33.71600120000221,33.84935450000194,33.83314760000212,33.8331634999995,33.84935450000194,34.54938309999852,34.53313290000369,33.71600120000221,,,695234,001,motor,1,2024-07-27_10h27.07.178,ASRT_percept,2023.2.3,59.98174155675152,2024-07-27 10h27.25.253172 +0800,
sequences/695234_motortesting_sequence_00.csv,90,1,1,3,red,,,,,,,,,,,,,0,0,0,0,0,18,18,18,34.54938309999852,,,,,,,,,,,,,,,,,,,,,,,,,,,,,,,,,,,,34.53338220000296,34.54938309999852,34.54938309999852,34.74920430000202,35.03294250000181,None,0,35.033169300004374,35.049312900002406,35.182529600002454,35.166461400003755,35.166476200000034,35.182529600002454,35.882910000000265,35.86660580000171,35.049312900002406,,,695234,001,motor,1,2024-07-27_10h27.07.178,ASRT_percept,2023.2.3,59.98174155675152,2024-07-27 10h27.25.253172 +0800,
sequences/695234_motortesting_sequence_00.csv,0,0,0,4,white,,,,,,,,,,,,,0,0,0,0,0,19,19,19,35.882910000000265,,,,,,,,,,,,,,,,,,,,,,,,,,,,,,,,,,,,35.86691489999794,35.882910000000265,35.882910000000265,36.08252879999782,36.366415600001346,None,0,36.36659060000238,36.38255030000437,36.51580310000281,36.50005200000305,36.500076700001955,36.51580310000281,37.21587140000338,37.1996364000006,36.38255030000437,,,695234,001,motor,1,2024-07-27_10h27.07.178,ASRT_percept,2023.2.3,59.98174155675152,2024-07-27 10h27.25.253172 +0800,
sequences/695234_motortesting_sequence_00.csv,270,3,3,1,red,,,,,,,,,,,,,0,0,0,0,0,20,20,20,37.21587140000338,,,,,,,,,,,,,,,,,,,,,,,,,,,,,,,,,,,,37.20007009999972,37.21587140000338,37.21587140000338,37.41578570000274,37.699618700004066,None,0,37.69979400000011,37.715922900002624,37.849054099999194,37.83307729999797,37.83309549999831,37.849054099999194,38.54915400000027,38.53280449999875,37.715922900002624,,,695234,001,motor,1,2024-07-27_10h27.07.178,ASRT_percept,2023.2.3,59.98174155675152,2024-07-27 10h27.25.253172 +0800,
sequences/695234_motortesting_sequence_00.csv,90,1,1,3,white,,,,,,,,,,,,,0,0,0,0,0,21,21,21,38.54915400000027,,,,,,,,,,,,,,,,,,,,,,,,,,,,,,,,,,,,38.53306750000047,38.54915400000027,38.54915400000027,38.749113800004125,39.03297210000164,None,0,39.03319999999803,39.049138599999424,39.182291500001156,39.16634119999799,39.16635900000256,39.182291500001156,39.88232830000197,39.866336600003706,39.049138599999424,,,695234,001,motor,1,2024-07-27_10h27.07.178,ASRT_percept,2023.2.3,59.98174155675152,2024-07-27 10h27.25.253172 +0800,
sequences/695234_motortesting_sequence_00.csv,0,0,0,4,red,,,,,,,,,,,,,0,0,0,0,0,22,22,22,39.88232830000197,,,,,,,,,,,,,,,,,,,,,,,,,,,,,,,,,,,,39.866603000002215,39.88232830000197,39.88232830000197,40.08243210000364,40.36674060000223,None,0,40.367156799999066,40.382455999999365,40.51574300000357,40.49954129999969,40.499558200004685,40.51574300000357,41.215678400003526,41.20003440000437,40.382455999999365,,,695234,001,motor,1,2024-07-27_10h27.07.178,ASRT_percept,2023.2.3,59.98174155675152,2024-07-27 10h27.25.253172 +0800,
sequences/695234_motortesting_sequence_00.csv,180,2,2,2,white,,,,,,,,,,,,,0,0,0,0,0,23,23,23,41.215678400003526,,,,,,,,,,,,,,,,,,,,,,,,,,,,,,,,,,,,41.20050590000028,41.215678400003526,41.215678400003526,41.415598200001114,41.69985409999936,None,0,41.70020849999855,41.71585420000338,41.84886859999824,41.83327660000214,41.83331149999867,41.84886859999824,42.54878019999887,42.53276300000289,41.71585420000338,,,695234,001,motor,1,2024-07-27_10h27.07.178,ASRT_percept,2023.2.3,59.98174155675152,2024-07-27 10h27.25.253172 +0800,
sequences/695234_motortesting_sequence_00.csv,270,3,3,1,red,,,,,,,,,,,,,0,0,0,0,0,24,24,24,42.54878019999887,,,,,,,,,,,,,,,,,,,,,,,,,,,,,,,,,,,,42.533233800000744,42.54878019999887,42.54878019999887,42.748759100002644,43.03253109999787,None,0,43.03271959999984,43.04886129999795,43.1818987000006,43.165914000004705,43.165931399998954,43.1818987000006,43.88206889999856,43.865951500003575,43.04886129999795,,,695234,001,motor,1,2024-07-27_10h27.07.178,ASRT_percept,2023.2.3,59.98174155675152,2024-07-27 10h27.25.253172 +0800,
,,,,,,,,,,,,,,,,,,,,,,,,,,43.88206889999856,,,,,,,,,,,,,,,,,,,,,,,,,,,,,,,,,,,,43.86628629999905,43.88206889999856,43.88206889999856,44.08214959999896,,,,,,,,,,,,,,,,,,,,,,,,
