initial_random_seq_files,orientation_index,orientation_degrees,correct_answer_index,correct_answer_direction,arrow_color,init_random_block.thisRepN,init_random_block.thisTrialN,init_random_block.thisN,init_random_block.thisIndex,init_random_trials.thisRepN,init_random_trials.thisTrialN,init_random_trials.thisN,init_random_trials.thisIndex,thisRow.t,notes,welcomescreen.started,spaceship.started,welcometext.started,welcome_end.started,welcomescreen.stopped,welcome_end.keys,welcome_end.rt,welcome_end.duration,pre_section.started,pre_section.stopped,trial.started,arrowhead.started,key_resp.started,arrowhead.stopped,trial.stopped,key_resp.keys,key_resp.corr,fixation_feedback.started,cross.started,feedback_text.started,cross.stopped,feedback_text.stopped,fixation_feedback.stopped,RSI.started,text_2.started,text_2.stopped,RSI.stopped,key_resp.stopped,key_resp.rt,key_resp.duration,participant,session,learning_type,seqID,debug,date,expName,psychopyVersion,frameRate,expStart,
,,,,,,,,,,,,,,,,0.002166800004488323,0.04719170000316808,0.04719170000316808,0.04719170000316808,4.02435400000104,space,3.974947599999723,None,,,,,,,,,,,,,,,,,,,,,,,867746,001,motor,1,1,2024-07-27_10h59.05.664,ASRT_percept,2023.2.3,60.027432535036475,2024-07-27 10h59.20.219627 +0800,
sequences/867746_initial_random.csv,3,270,3,left,red,0,0,0,0,0,0,0,0,4.0667117000048165,,,,,,,,,,4.036837799998466,4.037288999999873,4.062810800001898,4.0667117000048165,4.0667117000048165,4.2708264000029885,4.537413199999719,None,0,4.53778350000357,4.554122000001371,4.554122000001371,5.054107900003146,5.553948100001435,5.537920700000541,5.537953099999868,5.553948100001435,6.253869300002407,6.237866399998893,,,,867746,001,motor,1,1,2024-07-27_10h59.05.664,ASRT_percept,2023.2.3,60.027432535036475,2024-07-27 10h59.20.219627 +0800,
sequences/867746_initial_random.csv,2,180,2,down,red,0,0,0,0,0,1,1,1,6.253869300002407,,,,,,,,,,,,6.238096300003235,6.253869300002407,6.253869300002407,6.453727500003879,6.737751200002094,None,0,6.738042400000268,6.7538463000018965,6.7538463000018965,7.253766499998164,7.753832599999441,7.738075699999172,7.738093400002981,7.753832599999441,8.453756399998383,8.437766399998509,6.7538463000018965,,,867746,001,motor,1,1,2024-07-27_10h59.05.664,ASRT_percept,2023.2.3,60.027432535036475,2024-07-27 10h59.20.219627 +0800,
sequences/867746_initial_random.csv,2,180,2,down,red,0,0,0,0,0,2,2,2,8.453756399998383,,,,,,,,,,,,8.437979800000903,8.453756399998383,8.453756399998383,8.65381029999844,8.804832000001625,left,0,8.80544430000009,8.820524800001294,8.820524800001294,9.320588100003079,9.820398900003056,9.804242800004431,9.804259100004856,9.820398900003056,10.52062129999831,10.504375900003652,,0.3434475000030943,None,867746,001,motor,1,1,2024-07-27_10h59.05.664,ASRT_percept,2023.2.3,60.027432535036475,2024-07-27 10h59.20.219627 +0800,
sequences/867746_initial_random.csv,3,270,3,left,red,0,0,0,0,0,3,3,3,10.52062129999831,,,,,,,,,,,,10.504792700005055,10.52062129999831,10.52062129999831,10.720397000004596,10.821714800003974,down,0,10.82217920000403,10.837064200000896,10.837064200000896,11.3371638000026,11.837141100004374,11.820897400000831,11.820912700000918,11.837141100004374,12.536984200000006,12.52056150000135,,0.2863710000019637,None,867746,001,motor,1,1,2024-07-27_10h59.05.664,ASRT_percept,2023.2.3,60.027432535036475,2024-07-27 10h59.20.219627 +0800,
sequences/867746_initial_random.csv,2,180,2,down,red,0,0,0,0,0,4,4,4,12.536984200000006,,,,,,,,,,,,12.520814100003918,12.536984200000006,12.536984200000006,12.736782200001471,12.987758600000234,down,1,12.988029899999674,13.003532000002451,13.003532000002451,13.50357090000034,14.003549100001692,13.987735200003954,13.987773200002266,14.003549100001692,14.703530600003432,14.687378700000409,,0.4397333999950206,None,867746,001,motor,1,1,2024-07-27_10h59.05.664,ASRT_percept,2023.2.3,60.027432535036475,2024-07-27 10h59.20.219627 +0800,
sequences/867746_initial_random.csv,2,180,2,down,red,0,0,0,0,0,5,5,5,14.703530600003432,,,,,,,,,,,,14.6876271000001,14.703530600003432,14.703530600003432,14.903463900001952,15.187451099998725,None,0,15.187638499999593,15.203553500003181,15.203553500003181,15.70341520000511,16.20340070000384,16.18734240000049,16.187359299998207,16.20340070000384,16.90330520000134,16.887148500005424,15.203553500003181,,,867746,001,motor,1,1,2024-07-27_10h59.05.664,ASRT_percept,2023.2.3,60.027432535036475,2024-07-27 10h59.20.219627 +0800,
sequences/867746_initial_random.csv,0,0,0,up,red,0,0,0,0,0,6,6,6,16.90330520000134,,,,,,,,,,,,16.887360600005195,16.90330520000134,16.90330520000134,17.103343000002496,17.38764610000362,None,0,17.387991600000532,17.40362720000121,17.40362720000121,17.90353600000526,18.40350010000111,18.38756039999862,18.38758680000319,18.40350010000111,19.10350130000006,19.087202000002435,17.40362720000121,,,867746,001,motor,1,1,2024-07-27_10h59.05.664,ASRT_percept,2023.2.3,60.027432535036475,2024-07-27 10h59.20.219627 +0800,
sequences/867746_initial_random.csv,3,270,3,left,red,0,0,0,0,0,7,7,7,19.10350130000006,,,,,,,,,,,,19.087450400002126,19.10350130000006,19.10350130000006,19.303234800005157,19.587204399998882,None,0,19.58744960000331,19.603247300001385,19.603247300001385,20.10314130000188,20.603172600000107,20.58750290000171,20.58753119999892,20.603172600000107,21.30314780000481,21.287375100000645,19.603247300001385,,,867746,001,motor,1,1,2024-07-27_10h59.05.664,ASRT_percept,2023.2.3,60.027432535036475,2024-07-27 10h59.20.219627 +0800,
sequences/867746_initial_random.csv,2,180,2,down,red,0,0,0,0,0,8,8,8,21.30314780000481,,,,,,,,,,,,21.28773860000365,21.30314780000481,21.30314780000481,21.50327140000445,21.555220700000064,down,1,21.555703999998514,21.569795700001123,21.569795700001123,22.069902499999444,22.569976200000383,22.554158400002052,22.554194299998926,22.569976200000383,23.269829000004393,23.254063500004122,,0.2402042999965488,None,867746,001,motor,1,1,2024-07-27_10h59.05.664,ASRT_percept,2023.2.3,60.027432535036475,2024-07-27 10h59.20.219627 +0800,
sequences/867746_initial_random.csv,0,0,0,up,red,0,0,0,0,0,9,9,9,23.269829000004393,,,,,,,,,,,,23.25455299999885,23.269829000004393,23.269829000004393,23.470129799999995,23.75393890000123,None,0,23.754263300004823,23.76992180000525,23.76992180000525,24.269784600001003,24.769876999998814,24.754162199998973,24.75420149999991,24.769876999998814,25.469953500003612,25.453801299998304,23.76992180000525,,,867746,001,motor,1,1,2024-07-27_10h59.05.664,ASRT_percept,2023.2.3,60.027432535036475,2024-07-27 10h59.20.219627 +0800,
sequences/867746_initial_random.csv,3,270,3,left,red,0,0,0,0,0,10,10,10,25.469953500003612,,,,,,,,,,,,25.454193000005034,25.469953500003612,25.469953500003612,25.669836200002464,25.953949399998237,None,0,25.954270400005043,25.969902000004367,25.969902000004367,26.469892599998275,26.969824300002074,26.954168000003847,26.954206200003682,26.969824300002074,27.66951610000251,27.653529499999422,25.969902000004367,,,867746,001,motor,1,1,2024-07-27_10h59.05.664,ASRT_percept,2023.2.3,60.027432535036475,2024-07-27 10h59.20.219627 +0800,
sequences/867746_initial_random.csv,2,180,2,down,red,0,0,0,0,0,11,11,11,27.66951610000251,,,,,,,,,,,,27.65385000000242,27.66951610000251,27.66951610000251,27.869872000002943,28.153769600001397,None,0,28.154150300004403,28.16965180000261,28.16965180000261,28.669557000001078,29.16971200000262,29.15408970000135,29.154129000002285,29.16971200000262,29.869573200005107,29.85355520000303,28.16965180000261,,,867746,001,motor,1,1,2024-07-27_10h59.05.664,ASRT_percept,2023.2.3,60.027432535036475,2024-07-27 10h59.20.219627 +0800,
sequences/867746_initial_random.csv,3,270,3,left,red,0,0,0,0,0,12,12,12,29.869573200005107,,,,,,,,,,,,29.853950900003838,29.869573200005107,29.869573200005107,30.0696792000017,30.287372999999207,left,1,30.28759330000321,30.30290270000114,30.30290270000114,30.80288550000114,31.302635600004578,31.287218800003757,31.287248200002068,31.302635600004578,32.00281750000431,31.986976300002425,,0.4100079000054393,None,867746,001,motor,1,1,2024-07-27_10h59.05.664,ASRT_percept,2023.2.3,60.027432535036475,2024-07-27 10h59.20.219627 +0800,
sequences/867746_initial_random.csv,1,90,1,right,red,0,0,0,0,0,13,13,13,32.00281750000431,,,,,,,,,,,,31.9874140000029,32.00281750000431,32.00281750000431,32.20301460000337,32.4541462000052,up,0,32.454648600003566,32.46967330000189,32.46967330000189,32.96963250000408,33.46926710000116,33.45352450000064,33.453572300000815,33.46926710000116,34.16923980000138,34.15361470000062,,0.4473297000004095,None,867746,001,motor,1,1,2024-07-27_10h59.05.664,ASRT_percept,2023.2.3,60.027432535036475,2024-07-27 10h59.20.219627 +0800,
sequences/867746_initial_random.csv,3,270,3,left,red,0,0,0,0,0,14,14,14,34.16923980000138,,,,,,,,,,,,34.15392879999854,34.16923980000138,34.16923980000138,34.369288900001266,34.65290720000485,None,0,34.65311870000005,34.669114600001194,34.669114600001194,35.16946699999971,35.66947510000318,35.653358900002786,35.65338540000084,35.66947510000318,36.369256300000416,36.35338259999844,34.669114600001194,,,867746,001,motor,1,1,2024-07-27_10h59.05.664,ASRT_percept,2023.2.3,60.027432535036475,2024-07-27 10h59.20.219627 +0800,
sequences/867746_initial_random.csv,2,180,2,down,red,0,0,0,0,0,15,15,15,36.369256300000416,,,,,,,,,,,,36.35389099999884,36.369256300000416,36.369256300000416,36.56941380000353,36.853464100000565,None,0,36.85388850000163,36.86919940000371,36.86919940000371,37.36917979999998,37.86918549999973,37.852794400001585,37.852810000003956,37.86918549999973,38.569051200000104,38.55308380000497,36.86919940000371,,,867746,001,motor,1,1,2024-07-27_10h59.05.664,ASRT_percept,2023.2.3,60.027432535036475,2024-07-27 10h59.20.219627 +0800,
sequences/867746_initial_random.csv,3,270,3,left,red,0,0,0,0,0,16,16,16,38.569051200000104,,,,,,,,,,,,38.55346060000011,38.569051200000104,38.569051200000104,38.769200399998226,38.8870917000022,right,0,38.8875124000042,38.90247890000319,38.90247890000319,39.40236720000394,39.90236839999852,39.88684900000226,39.88688499999989,39.90236839999852,40.60245510000095,40.5866915000006,,0.30627309999545105,None,867746,001,motor,1,1,2024-07-27_10h59.05.664,ASRT_percept,2023.2.3,60.027432535036475,2024-07-27 10h59.20.219627 +0800,
sequences/867746_initial_random.csv,3,270,3,left,red,0,0,0,0,0,17,17,17,40.60245510000095,,,,,,,,,,,,40.587125600002764,40.60245510000095,40.60245510000095,40.80239370000345,40.97035350000078,left,1,40.97084040000482,40.985598400002345,40.985598400002345,41.48576540000067,41.98555930000293,41.97009290000278,41.97012430000177,41.98555930000293,42.6856018000035,42.66971370000101,,0.3620835999972769,None,867746,001,motor,1,1,2024-07-27_10h59.05.664,ASRT_percept,2023.2.3,60.027432535036475,2024-07-27 10h59.20.219627 +0800,
sequences/867746_initial_random.csv,0,0,0,up,red,0,0,0,0,0,18,18,18,42.6856018000035,,,,,,,,,,,,42.67016810000496,42.6856018000035,42.6856018000035,42.885344800000894,43.05347540000366,up,1,43.053865900001256,43.06886160000431,43.06886160000431,43.56886130000203,44.06892009999865,44.0532114000016,44.0532938000033,44.06892009999865,44.768966399999044,44.75323070000013,,0.35919389999617124,None,867746,001,motor,1,1,2024-07-27_10h59.05.664,ASRT_percept,2023.2.3,60.027432535036475,2024-07-27 10h59.20.219627 +0800,
sequences/867746_initial_random.csv,2,180,2,down,red,0,0,0,0,0,19,19,19,44.768966399999044,,,,,,,,,,,,44.753618599999754,44.768966399999044,44.768966399999044,44.9687042000005,45.202569900000526,down,1,45.20287390000158,45.21870879999915,45.21870879999915,45.71856600000319,46.21856449999905,46.20270000000164,46.2027223000041,46.21856449999905,46.91864940000232,46.902374500001315,,0.4258445000014035,None,867746,001,motor,1,1,2024-07-27_10h59.05.664,ASRT_percept,2023.2.3,60.027432535036475,2024-07-27 10h59.20.219627 +0800,
sequences/867746_initial_random.csv,3,270,3,left,red,0,0,0,0,0,20,20,20,46.91864940000232,,,,,,,,,,,,46.9026451000027,46.91864940000232,46.91864940000232,47.11854149999999,47.336066000003484,left,1,47.33635769999819,47.35182370000257,47.35182370000257,47.85179240000434,48.35183170000528,48.33586179999838,48.335906400003296,48.35183170000528,49.051866300003894,49.035689600001206,,0.41533930000150576,None,867746,001,motor,1,1,2024-07-27_10h59.05.664,ASRT_percept,2023.2.3,60.027432535036475,2024-07-27 10h59.20.219627 +0800,
sequences/867746_initial_random.csv,2,180,2,down,red,0,0,0,0,0,21,21,21,49.051866300003894,,,,,,,,,,,,49.03593130000081,49.051866300003894,49.051866300003894,49.251659300003666,49.50261400000454,down,1,49.50296750000416,49.518443200002366,49.518443200002366,50.018490200003725,50.518381200003205,50.50205339999957,50.50208230000135,50.518381200003205,51.21845570000005,51.20245630000136,,0.4372858999995515,None,867746,001,motor,1,1,2024-07-27_10h59.05.664,ASRT_percept,2023.2.3,60.027432535036475,2024-07-27 10h59.20.219627 +0800,
sequences/867746_initial_random.csv,2,180,2,down,red,0,0,0,0,0,22,22,22,51.21845570000005,,,,,,,,,,,,51.2029349000004,51.21845570000005,51.21845570000005,51.41819799999939,51.686278400004085,down,1,51.68666479999956,51.70174650000263,51.70174650000263,52.2016122999994,52.70155320000049,52.68532019999839,52.68534360000194,52.70155320000049,53.40160990000004,53.38565070000186,,0.4621636000010767,None,867746,001,motor,1,1,2024-07-27_10h59.05.664,ASRT_percept,2023.2.3,60.027432535036475,2024-07-27 10h59.20.219627 +0800,
sequences/867746_initial_random.csv,1,90,1,right,red,0,0,0,0,0,23,23,23,53.40160990000004,,,,,,,,,,,,53.38605410000309,53.40160990000004,53.40160990000004,53.601565100005246,53.83562000000529,right,1,53.835917399999744,53.85171730000002,53.85171730000002,54.35138620000362,54.85151749999932,54.83545400000003,54.83548080000037,54.85151749999932,55.55147830000351,55.535593600005086,,0.4288804000025266,None,867746,001,motor,1,1,2024-07-27_10h59.05.664,ASRT_percept,2023.2.3,60.027432535036475,2024-07-27 10h59.20.219627 +0800,
sequences/867746_initial_random.csv,1,90,1,right,red,0,0,0,0,0,24,24,24,55.55147830000351,,,,,,,,,,,,55.535888300000806,55.55147830000351,55.55147830000351,55.751477700003306,55.952059900002496,down,0,55.9523291000005,55.96819990000222,55.96819990000222,56.46796280000126,56.96821820000332,56.95206809999945,56.95209630000318,56.96821820000332,57.66804570000386,57.65185400000337,,0.39882139999826904,None,867746,001,motor,1,1,2024-07-27_10h59.05.664,ASRT_percept,2023.2.3,60.027432535036475,2024-07-27 10h59.20.219627 +0800,
sequences/867746_initial_random.csv,1,90,1,right,red,0,0,0,0,0,25,25,25,57.66804570000386,,,,,,,,,,,,57.652149100002134,57.66804570000386,57.66804570000386,57.86805870000535,58.08560489999945,right,1,58.08593380000093,58.10131440000259,58.10131440000259,58.60121110000182,59.10118160000275,59.08510799999931,59.085122199998295,59.10118160000275,59.801195500003814,59.784957299998496,,0.4069264999998268,None,867746,001,motor,1,1,2024-07-27_10h59.05.664,ASRT_percept,2023.2.3,60.027432535036475,2024-07-27 10h59.20.219627 +0800,
sequences/867746_initial_random.csv,3,270,3,left,red,0,0,0,0,0,26,26,26,59.801195500003814,,,,,,,,,,,,59.78521680000267,59.801195500003814,59.801195500003814,60.00099130000308,60.118631299999834,down,0,60.118878300003416,60.134649600004195,60.134649600004195,60.634628200001316,61.13465910000377,61.11830660000123,61.11832290000166,61.13465910000377,61.834501099998306,61.818561700005375,,0.3137048999997205,None,867746,001,motor,1,1,2024-07-27_10h59.05.664,ASRT_percept,2023.2.3,60.027432535036475,2024-07-27 10h59.20.219627 +0800,
sequences/867746_initial_random.csv,0,0,0,up,red,0,0,0,0,0,27,27,27,61.834501099998306,,,,,,,,,,,,61.8187820000021,61.834501099998306,61.834501099998306,62.03452449999895,62.31816410000465,None,0,62.31835080000019,62.3344922000033,62.3344922000033,62.834389399999054,63.33444550000422,63.31819920000271,63.318225200004235,63.33444550000422,64.03440830000181,64.01827580000099,62.3344922000033,,,867746,001,motor,1,1,2024-07-27_10h59.05.664,ASRT_percept,2023.2.3,60.027432535036475,2024-07-27 10h59.20.219627 +0800,
sequences/867746_initial_random.csv,2,180,2,down,red,0,0,0,0,0,28,28,28,64.03440830000181,,,,,,,,,,,,64.01856570000382,64.03440830000181,64.03440830000181,64.23451909999858,64.46859519999998,left,0,64.46891770000366,64.48445139999967,64.48445139999967,64.98434070000076,65.48423770000227,65.46823240000231,65.46825080000417,65.48423770000227,66.1843749000036,66.16823339999974,,0.42599019999761367,None,867746,001,motor,1,1,2024-07-27_10h59.05.664,ASRT_percept,2023.2.3,60.027432535036475,2024-07-27 10h59.20.219627 +0800,
sequences/867746_initial_random.csv,2,180,2,down,red,0,0,0,0,0,29,29,29,66.1843749000036,,,,,,,,,,,,66.16856940000434,66.1843749000036,66.1843749000036,66.38431310000306,66.65185880000354,down,1,66.65214840000408,66.6676110000044,66.6676110000044,67.16765160000068,67.66754120000405,67.65126030000101,67.65127580000262,67.66754120000405,68.3674702999997,68.35145890000422,,0.4662447000009706,None,867746,001,motor,1,1,2024-07-27_10h59.05.664,ASRT_percept,2023.2.3,60.027432535036475,2024-07-27 10h59.20.219627 +0800,
sequences/867746_initial_random.csv,3,270,3,left,red,0,0,0,0,0,30,30,30,68.3674702999997,,,,,,,,,,,,68.35186709999834,68.3674702999997,68.3674702999997,68.56752080000297,68.83465879999858,left,1,68.83491100000538,68.85069600000134,68.85069600000134,69.35070450000057,69.85067310000159,69.83461230000103,69.83465450000222,69.85067310000159,70.5507465000046,70.53448520000529,,0.4584166999993613,None,867746,001,motor,1,1,2024-07-27_10h59.05.664,ASRT_percept,2023.2.3,60.027432535036475,2024-07-27 10h59.20.219627 +0800,
sequences/867746_initial_random.csv,1,90,1,right,red,0,0,0,0,0,31,31,31,70.5507465000046,,,,,,,,,,,,70.53471949999948,70.5507465000046,70.5507465000046,70.75060700000176,71.01812630000495,right,1,71.0184150999994,71.03396470000007,71.03396470000007,71.53405010000279,72.03389060000336,72.01791040000535,72.01792650000425,72.03389060000336,72.73393860000215,72.71804939999856,,0.46586199999728706,None,867746,001,motor,1,1,2024-07-27_10h59.05.664,ASRT_percept,2023.2.3,60.027432535036475,2024-07-27 10h59.20.219627 +0800,
sequences/867746_initial_random.csv,1,90,1,right,red,0,0,0,0,0,32,32,32,72.73393860000215,,,,,,,,,,,,72.71826290000172,72.73393860000215,72.73393860000215,72.93383570000151,73.20156140000472,right,1,73.20192230000248,73.21731040000304,73.21731040000304,73.71728460000304,74.2172200999994,74.20098240000516,74.20100020000245,74.2172200999994,74.9171181999991,74.90105100000073,,0.4628307000020868,None,867746,001,motor,1,1,2024-07-27_10h59.05.664,ASRT_percept,2023.2.3,60.027432535036475,2024-07-27 10h59.20.219627 +0800,
sequences/867746_initial_random.csv,0,0,0,up,red,0,0,0,0,0,33,33,33,74.9171181999991,,,,,,,,,,,,74.90137060000416,74.9171181999991,74.9171181999991,75.11721090000356,75.40086059999885,None,0,75.40104530000099,75.41714960000536,75.41714960000536,75.91720290000376,76.41714000000502,76.40096840000479,76.40098250000301,76.41714000000502,77.11716430000524,77.10088000000542,75.41714960000536,,,867746,001,motor,1,1,2024-07-27_10h59.05.664,ASRT_percept,2023.2.3,60.027432535036475,2024-07-27 10h59.20.219627 +0800,
sequences/867746_initial_random.csv,1,90,1,right,red,0,0,0,0,0,34,34,34,77.11716430000524,,,,,,,,,,,,77.10119150000537,77.11716430000524,77.11716430000524,77.31709450000199,77.58488360000047,right,1,77.58515700000135,77.60035880000214,77.60035880000214,78.10034740000265,78.60033150000527,78.58409140000003,78.58410739999817,78.60033150000527,79.30022750000353,79.2843692000024,,0.4655230999997002,None,867746,001,motor,1,1,2024-07-27_10h59.05.664,ASRT_percept,2023.2.3,60.027432535036475,2024-07-27 10h59.20.219627 +0800,
sequences/867746_initial_random.csv,0,0,0,up,red,0,0,0,0,0,35,35,35,79.30022750000353,,,,,,,,,,,,79.28470830000151,79.30022750000353,79.30022750000353,79.5002747000035,79.78403660000185,None,0,79.78424630000518,79.80013190000318,79.80013190000318,80.30016610000166,80.8001207999987,80.78427960000408,80.78430970000045,80.8001207999987,81.50023080000392,81.48378819999925,79.80013190000318,,,867746,001,motor,1,1,2024-07-27_10h59.05.664,ASRT_percept,2023.2.3,60.027432535036475,2024-07-27 10h59.20.219627 +0800,
sequences/867746_initial_random.csv,1,90,1,right,red,0,0,0,0,0,36,36,36,81.50023080000392,,,,,,,,,,,,81.48398699999962,81.50023080000392,81.50023080000392,81.70004930000141,81.98387809999986,None,0,81.98407460000453,82.000085700005,82.000085700005,82.50013590000162,83.00015169999824,82.98381090000476,82.98382610000408,83.00015169999824,83.70002499999828,83.68371599999955,82.000085700005,,,867746,001,motor,1,1,2024-07-27_10h59.05.664,ASRT_percept,2023.2.3,60.027432535036475,2024-07-27 10h59.20.219627 +0800,
sequences/867746_initial_random.csv,0,0,0,up,red,0,0,0,0,0,37,37,37,83.70002499999828,,,,,,,,,,,,83.68391210000118,83.70002499999828,83.70002499999828,83.89987140000449,84.1008170999994,up,1,84.10106180000002,84.1166086000012,84.1166086000012,84.61683350000385,85.11655270000483,85.10036380000383,85.1003800000035,85.11655270000483,85.81667220000236,85.80071500000486,,0.39392799999768613,None,867746,001,motor,1,1,2024-07-27_10h59.05.664,ASRT_percept,2023.2.3,60.027432535036475,2024-07-27 10h59.20.219627 +0800,
sequences/867746_initial_random.csv,0,0,0,up,red,0,0,0,0,0,38,38,38,85.81667220000236,,,,,,,,,,,,85.80113620000338,85.81667220000236,85.81667220000236,86.01664750000054,86.30036290000135,None,0,86.30058600000484,86.31669840000541,86.31669840000541,86.81659900000523,87.31651940000302,87.30038649999915,87.30040179999924,87.31651940000302,88.01653259999875,88.00016410000535,86.31669840000541,,,867746,001,motor,1,1,2024-07-27_10h59.05.664,ASRT_percept,2023.2.3,60.027432535036475,2024-07-27 10h59.20.219627 +0800,
,,,,,,,,,,,,,,88.01653259999875,,,,,,,,,,,,88.00037080000038,88.01653259999875,88.01653259999875,,,,,,,,,,,,,,,,,,,,,,,,,,,,
