initial_random_seq_files,orientation_index,orientation_degrees,correct_answer_index,correct_answer_direction,arrow_color,practice_seq_files,learning_seq_files,motor_testing_seq_files,init_random_block.thisRepN,init_random_block.thisTrialN,init_random_block.thisN,init_random_block.thisIndex,init_random_trials.thisRepN,init_random_trials.thisTrialN,init_random_trials.thisN,init_random_trials.thisIndex,practice_blocks.thisRepN,practice_blocks.thisTrialN,practice_blocks.thisN,practice_blocks.thisIndex,practice_trials.thisRepN,practice_trials.thisTrialN,practice_trials.thisN,practice_trials.thisIndex,learning_trials.thisRepN,learning_trials.thisTrialN,learning_trials.thisN,learning_trials.thisIndex,learning_loop.thisRepN,learning_loop.thisTrialN,learning_loop.thisN,learning_loop.thisIndex,trials.thisRepN,trials.thisTrialN,trials.thisN,trials.thisIndex,motor_testing_trials.thisRepN,motor_testing_trials.thisTrialN,motor_testing_trials.thisN,motor_testing_trials.thisIndex,motor_testing_loop.thisRepN,motor_testing_loop.thisTrialN,motor_testing_loop.thisN,motor_testing_loop.thisIndex,thisRow.t,notes,welcomescreen.started,spaceship.started,welcometext.started,welcome_end.started,welcomescreen.stopped,welcome_end.keys,welcome_end.rt,welcome_end.duration,pre_section.started,fixation_init.started,pre_section.stopped,trial.started,arrowhead.started,key_resp.started,arrowhead.stopped,trial.stopped,key_resp.keys,key_resp.corr,key_resp.rt,key_resp.duration,fixation_feedback.started,cross.started,feedback_text.started,cross.stopped,feedback_text.stopped,fixation_feedback.stopped,RSI.started,text_2.started,RSI.stopped,text_2.stopped,post_section.started,feedback_post_section.started,key_resp_4.started,feedback_post_section.stopped,post_section.stopped,key_resp_4.keys,key_resp_4.rt,key_resp_4.duration,pratice_instruction.started,spaceship_rotated.started,rotation_instruction.started,key_resp_2.started,pratice_instruction.stopped,key_resp_2.keys,key_resp_2.rt,key_resp_2.duration,fixation_init.stopped,learning_instruction.started,spaceship_rotated01.started,rotation_instruction01.started,key_resp_02.started,learning_instruction.stopped,key_resp_02.keys,key_resp_02.rt,key_resp_02.duration,seqreport_instruction.started,seqreport_instruction_text.started,seqreport_instruction_key.started,seqreport_instruction_text.stopped,seqreport_instruction.stopped,seqreport_instruction_key.keys,seqreport_instruction_key.rt,seqreport_instruction_key.duration,seqreport.started,seq_report_key.started,seqreport.stopped,seq_report_key.keys,seq_report_key.rt,seq_report_key.duration,seqarrow.started,arrow_report.started,seqarrow.stopped,arrow_report.stopped,motor_testing_instruction.started,spaceship3.started,motor_testing_instruction_text.started,key_resp_3.started,motor_testing_instruction.stopped,key_resp_3.keys,key_resp_3.rt,key_resp_3.duration,fixation.started,cross_2.started,cross_2.stopped,fixation.stopped,thankyouscreen.started,text.started,key_resp_6.started,thankyouscreen.stopped,key_resp_6.keys,key_resp_6.rt,key_resp_6.duration,participant,learning_type,seqID,debug,date,expName,psychopyVersion,frameRate,
,,,,,,,,,,,,,,,,,,,,,,,,,,,,,,,,,,,,,,,,,,,,,,,0.01116580000234535,0.031231300003128126,0.031231300003128126,0.031231300003128126,48.51344300000346,space,48.47809559999587,None,,,,,,,,,,,,,,,,,,,,,,,,,,,,,,,,,,,,,,,,,,,,,,,,,,,,,,,,,,,,,,,,,,,,,,,,,,,,,,,,,,,,,001,motor,1,0,2024-08-01_10h10.10.457,ASRT_motor,2023.2.3,142.18198154969247,
sequences/_initial_random.csv,2,180,2,2,red,,,,0,0,0,0,0,0,0,0,,,,,,,,,,,,,,,,,,,,,,,,,,,,,49.58071049999853,,,,,,,,,,48.53498810000019,48.53800349999801,49.5208322000035,49.57747280000331,49.58071049999853,49.58071049999853,49.782838099999935,50.159939800003485,2,1,0.5769966999941971,None,50.16094999999768,50.17008999999962,50.17008999999962,50.37348059999931,50.58094400000118,50.575340100003814,50.57538670000213,50.58094400000118,51.275803900003666,,,,,,,,,,,,,,,,,,,,,,,,,,,,,,,,,,,,,,,,,,,,,,,,,,,,,,,,,,,,,,,,001,motor,1,0,2024-08-01_10h10.10.457,ASRT_motor,2023.2.3,142.18198154969247,
sequences/_initial_random.csv,3,270,3,1,red,,,,0,0,0,0,0,1,1,1,,,,,,,,,,,,,,,,,,,,,,,,,,,,,51.28280490000179,,,,,,,,,,,,,51.276625099999364,51.28280490000179,51.28280490000179,51.48344250000082,51.76505629999883,1,1,0.47923280000395607,None,51.766097400002764,51.77294819999952,51.77294819999952,51.97729160000017,52.18570790000376,52.17936760000157,52.179412800003774,52.18570790000376,52.87965319999785,,,,,,,,,,,,,,,,,,,,,,,,,,,,,,,,,,,,,,,,,,,,,,,,,,,,,,,,,,,,,,,,001,motor,1,0,2024-08-01_10h10.10.457,ASRT_motor,2023.2.3,142.18198154969247,
sequences/_initial_random.csv,0,0,0,4,red,,,,0,0,0,0,0,2,2,2,,,,,,,,,,,,,,,,,,,,,,,,,,,,,52.88609870000073,,,,,,,,,,,,,52.88031439999759,52.88609870000073,52.88609870000073,53.08825739999884,53.23030170000129,4,1,0.3410308999955305,None,53.2305467000042,53.2338996000035,53.2338996000035,53.44203720000223,53.65044160000252,53.64519730000029,53.64524930000334,53.65044160000252,54.34555240000191,,,,,,,,,,,,,,,,,,,,,,,,,,,,,,,,,,,,,,,,,,,,,,,,,,,,,,,,,,,,,,,,001,motor,1,0,2024-08-01_10h10.10.457,ASRT_motor,2023.2.3,142.18198154969247,
sequences/_initial_random.csv,2,180,2,2,red,,,,0,0,0,0,0,3,3,3,,,,,,,,,,,,,,,,,,,,,,,,,,,,,54.35473060000368,,,,,,,,,,,,,54.34633670000039,54.35473060000368,54.35473060000368,54.56018459999905,54.78350009999849,2,1,0.42702310000458965,None,54.78377249999903,54.79053959999874,54.79053959999874,54.99793299999874,55.205507200000284,55.200658900001145,55.20070400000259,55.205507200000284,55.90089040000021,,,,,,,,,,,,,,,,,,,,,,,,,,,,,,,,,,,,,,,,,,,,,,,,,,,,,,,,,,,,,,,,001,motor,1,0,2024-08-01_10h10.10.457,ASRT_motor,2023.2.3,142.18198154969247,
sequences/_initial_random.csv,0,0,0,4,red,,,,0,0,0,0,0,4,4,4,,,,,,,,,,,,,,,,,,,,,,,,,,,,,55.90916029999789,,,,,,,,,,,,,55.90214779999951,55.90916029999789,55.90916029999789,56.10901190000004,56.32094789999974,4,1,0.40731640000012703,None,56.32171090000338,56.33182980000129,56.33182980000129,56.532622799997625,56.740359700001136,56.73518590000458,56.735237300003064,56.740359700001136,57.436158800002886,57.44380470000033,,,,,,,,,,,,,,,,,,,,,,,,,,,,,,,,,,,,,,,,,,,,,,,,,,,,,,,,,,,,,,,001,motor,1,0,2024-08-01_10h10.10.457,ASRT_motor,2023.2.3,142.18198154969247,
sequences/_initial_random.csv,0,0,0,4,red,,,,0,0,0,0,0,5,5,5,,,,,,,,,,,,,,,,,,,,,,,,,,,,,57.44380470000033,,,,,,,,,,,,,57.43707030000223,57.44380470000033,57.44380470000033,57.64329279999947,57.87027970000054,4,1,0.4195045000014943,None,57.87109870000131,57.87911280000117,57.87911280000117,58.08070869999938,58.28952550000395,58.28400910000346,58.284059600002365,58.28952550000395,58.98490149999998,58.992256800003815,,,,,,,,,,,,,,,,,,,,,,,,,,,,,,,,,,,,,,,,,,,,,,,,,,,,,,,,,,,,,,,001,motor,1,0,2024-08-01_10h10.10.457,ASRT_motor,2023.2.3,142.18198154969247,
sequences/_initial_random.csv,0,0,0,4,red,,,,0,0,0,0,0,6,6,6,,,,,,,,,,,,,,,,,,,,,,,,,,,,,58.992256800003815,,,,,,,,,,,,,58.98552650000056,58.992256800003815,58.992256800003815,59.19225490000099,59.3806218000027,4,1,0.3818851000032737,None,59.38116340000124,59.38893770000141,59.38893770000141,59.597166200001084,59.803141700002016,59.797605400002794,59.79764670000441,59.803141700002016,60.49921560000075,60.505529100002605,,,,,,,,,,,,,,,,,,,,,,,,,,,,,,,,,,,,,,,,,,,,,,,,,,,,,,,,,,,,,,,001,motor,1,0,2024-08-01_10h10.10.457,ASRT_motor,2023.2.3,142.18198154969247,
sequences/_initial_random.csv,2,180,2,2,red,,,,0,0,0,0,0,7,7,7,,,,,,,,,,,,,,,,,,,,,,,,,,,,,60.505529100002605,,,,,,,,,,,,,60.49990529999923,60.505529100002605,60.505529100002605,60.713393999998516,60.99543650000123,2,1,0.48212050000438467,None,60.996421399999235,61.00409210000362,61.00409210000362,61.198528000000806,61.40669129999878,61.40201910000178,61.40206639999815,61.40669129999878,62.10256279999885,,,,,,,,,,,,,,,,,,,,,,,,,,,,,,,,,,,,,,,,,,,,,,,,,,,,,,,,,,,,,,,,001,motor,1,0,2024-08-01_10h10.10.457,ASRT_motor,2023.2.3,142.18198154969247,
sequences/_initial_random.csv,3,270,3,1,red,,,,0,0,0,0,0,8,8,8,,,,,,,,,,,,,,,,,,,,,,,,,,,,,62.11432179999974,,,,,,,,,,,,,62.10371260000102,62.11432179999974,62.11432179999974,62.31720689999929,62.56219299999793,1,1,0.44295940000301925,None,62.56279170000198,62.568156699999236,62.568156699999236,62.7749169000017,62.983998199997586,62.977752099999634,62.9777996000048,62.983998199997586,63.678445500001544,,,,,,,,,,,,,,,,,,,,,,,,,,,,,,,,,,,,,,,,,,,,,,,,,,,,,,,,,,,,,,,,001,motor,1,0,2024-08-01_10h10.10.457,ASRT_motor,2023.2.3,142.18198154969247,
sequences/_initial_random.csv,2,180,2,2,red,,,,0,0,0,0,0,9,9,9,,,,,,,,,,,,,,,,,,,,,,,,,,,,,63.684600300002785,,,,,,,,,,,,,63.679070899997896,63.684600300002785,63.684600300002785,63.88656440000341,64.13833590000286,2,1,0.45023959999525687,None,64.13899200000014,64.14472680000472,64.14472680000472,64.35179100000096,64.55978799999866,64.55402480000339,64.55407130000094,64.55978799999866,65.25464880000072,,,,,,,,,,,,,,,,,,,,,,,,,,,,,,,,,,,,,,,,,,,,,,,,,,,,,,,,,,,,,,,,001,motor,1,0,2024-08-01_10h10.10.457,ASRT_motor,2023.2.3,142.18198154969247,
sequences/_initial_random.csv,2,180,2,2,red,,,,0,0,0,0,0,10,10,10,,,,,,,,,,,,,,,,,,,,,,,,,,,,,65.26072450000356,,,,,,,,,,,,,65.25518400000146,65.26072450000356,65.26072450000356,65.46284530000412,65.7566880000013,2,1,0.49045789999945555,None,65.75758289999794,65.76906820000295,65.76906820000295,65.97002520000387,66.18356230000063,66.17655680000462,66.17662220000057,66.18356230000063,66.8797315999982,,,,,,,,,,,,,,,,,,,,,,,,,,,,,,,,,,,,,,,,,,,,,,,,,,,,,,,,,,,,,,,,001,motor,1,0,2024-08-01_10h10.10.457,ASRT_motor,2023.2.3,142.18198154969247,
sequences/_initial_random.csv,0,0,0,4,red,,,,0,0,0,0,0,11,11,11,,,,,,,,,,,,,,,,,,,,,,,,,,,,,66.88837359999889,,,,,,,,,,,,,66.88053750000108,66.88837359999889,66.88837359999889,67.08771320000233,67.30080560000351,4,1,0.4061329000032856,None,67.30149199999869,67.31018739999854,67.31018739999854,67.51139720000356,67.71997540000302,67.71361980000074,67.71366610000405,67.71997540000302,68.4147482000044,,,,,,,,,,,,,,,,,,,,,,,,,,,,,,,,,,,,,,,,,,,,,,,,,,,,,,,,,,,,,,,,001,motor,1,0,2024-08-01_10h10.10.457,ASRT_motor,2023.2.3,142.18198154969247,
sequences/_initial_random.csv,1,90,1,3,red,,,,0,0,0,0,0,12,12,12,,,,,,,,,,,,,,,,,,,,,,,,,,,,,68.42367180000292,,,,,,,,,,,,,68.41545279999991,68.42367180000292,68.42367180000292,68.62968779999937,68.83240450000449,3,1,0.404857900000934,None,68.83302820000245,68.83764510000037,68.83764510000037,69.04570609999791,69.25435870000365,69.2491977000027,69.24924650000321,69.25435870000365,69.94920889999776,69.95524300000397,,,,,,,,,,,,,,,,,,,,,,,,,,,,,,,,,,,,,,,,,,,,,,,,,,,,,,,,,,,,,,,001,motor,1,0,2024-08-01_10h10.10.457,ASRT_motor,2023.2.3,142.18198154969247,
sequences/_initial_random.csv,3,270,3,1,red,,,,0,0,0,0,0,13,13,13,,,,,,,,,,,,,,,,,,,,,,,,,,,,,69.95524300000397,,,,,,,,,,,,,69.94965880000382,69.95524300000397,69.95524300000397,70.15702040000178,70.32012430000032,1,1,0.3563062999965041,None,70.32081190000463,70.32722050000302,70.32722050000302,70.53224439999758,70.74005130000296,70.73476510000182,70.73481020000327,70.74005130000296,71.43536880000465,,,,,,,,,,,,,,,,,,,,,,,,,,,,,,,,,,,,,,,,,,,,,,,,,,,,,,,,,,,,,,,,001,motor,1,0,2024-08-01_10h10.10.457,ASRT_motor,2023.2.3,142.18198154969247,
sequences/_initial_random.csv,3,270,3,1,red,,,,0,0,0,0,0,14,14,14,,,,,,,,,,,,,,,,,,,,,,,,,,,,,71.44144529999903,,,,,,,,,,,,,71.43596989999787,71.44144529999903,71.44144529999903,71.64348720000271,71.79886039999838,2,0,0.3493568999983836,None,71.79973289999907,71.81396600000153,71.81396600000153,72.01092040000367,72.22040900000138,72.21536539999943,72.2154165000029,72.22040900000138,72.91465690000041,72.92069369999808,,,,,,,,,,,,,,,,,,,,,,,,,,,,,,,,,,,,,,,,,,,,,,,,,,,,,,,,,,,,,,,001,motor,1,0,2024-08-01_10h10.10.457,ASRT_motor,2023.2.3,142.18198154969247,
sequences/_initial_random.csv,1,90,1,3,red,,,,0,0,0,0,0,15,15,15,,,,,,,,,,,,,,,,,,,,,,,,,,,,,72.92069369999808,,,,,,,,,,,,,72.91529860000446,72.92069369999808,72.92069369999808,73.12263330000133,73.4125681000005,3,1,0.4869691999992938,None,73.41391619999922,73.4272695000036,73.4272695000036,73.62199920000421,73.83133480000106,73.82527120000304,73.82532280000305,73.83133480000106,74.52572370000416,,,,,,,,,,,,,,,,,,,,,,,,,,,,,,,,,,,,,,,,,,,,,,,,,,,,,,,,,,,,,,,,001,motor,1,0,2024-08-01_10h10.10.457,ASRT_motor,2023.2.3,142.18198154969247,
sequences/_initial_random.csv,0,0,0,4,red,,,,0,0,0,0,0,16,16,16,,,,,,,,,,,,,,,,,,,,,,,,,,,,,74.53162800000428,,,,,,,,,,,,,74.52669610000157,74.53162800000428,74.53162800000428,74.73336560000462,74.87386479999986,4,1,0.33751520000078017,None,74.87445029999799,74.88044690000243,74.88044690000243,75.08716000000277,75.29567580000003,75.28994210000383,75.28998750000028,75.29567580000003,75.99017860000458,,,,,,,,,,,,,,,,,,,,,,,,,,,,,,,,,,,,,,,,,,,,,,,,,,,,,,,,,,,,,,,,001,motor,1,0,2024-08-01_10h10.10.457,ASRT_motor,2023.2.3,142.18198154969247,
sequences/_initial_random.csv,3,270,3,1,red,,,,0,0,0,0,0,17,17,17,,,,,,,,,,,,,,,,,,,,,,,,,,,,,75.99765090000437,,,,,,,,,,,,,75.99076280000008,75.99765090000437,75.99765090000437,76.19848140000249,76.28651840000384,1,1,0.2846768000017619,None,76.2872806000014,76.29405290000432,76.29405290000432,76.49681860000419,76.70554319999792,76.69966710000153,76.69971900000382,76.70554319999792,77.40000390000205,,,,,,,,,,,,,,,,,,,,,,,,,,,,,,,,,,,,,,,,,,,,,,,,,,,,,,,,,,,,,,,,001,motor,1,0,2024-08-01_10h10.10.457,ASRT_motor,2023.2.3,142.18198154969247,
sequences/_initial_random.csv,1,90,1,3,red,,,,0,0,0,0,0,18,18,18,,,,,,,,,,,,,,,,,,,,,,,,,,,,,77.40740170000208,,,,,,,,,,,,,77.40063770000415,77.40740170000208,77.40740170000208,77.60803280000255,77.83370980000473,3,1,0.42324749999534106,None,77.834354300001,77.84267220000038,77.84267220000038,78.04639490000409,78.25424529999873,78.24834669999836,78.24838830000226,78.25424529999873,78.9486687000026,,,,,,,,,,,,,,,,,,,,,,,,,,,,,,,,,,,,,,,,,,,,,,,,,,,,,,,,,,,,,,,,001,motor,1,0,2024-08-01_10h10.10.457,ASRT_motor,2023.2.3,142.18198154969247,
sequences/_initial_random.csv,0,0,0,4,red,,,,0,0,0,0,0,19,19,19,,,,,,,,,,,,,,,,,,,,,,,,,,,,,78.95518230000016,,,,,,,,,,,,,78.94921009999962,78.95518230000016,78.95518230000016,79.15646160000324,79.33262800000375,4,1,0.36966340000071796,None,79.33318549999967,79.33822230000078,79.33822230000078,79.54602049999812,79.75392950000241,79.74783000000025,79.74786550000135,79.75392950000241,80.44863170000463,,,,,,,,,,,,,,,,,,,,,,,,,,,,,,,,,,,,,,,,,,,,,,,,,,,,,,,,,,,,,,,,001,motor,1,0,2024-08-01_10h10.10.457,ASRT_motor,2023.2.3,142.18198154969247,
sequences/_initial_random.csv,1,90,1,3,red,,,,0,0,0,0,0,20,20,20,,,,,,,,,,,,,,,,,,,,,,,,,,,,,80.4548322000046,,,,,,,,,,,,,80.44916399999784,80.4548322000046,80.4548322000046,80.65655250000418,80.8191325000007,3,1,0.3593892999997479,None,80.8199672999981,80.82617340000434,80.82617340000434,81.0318247000032,81.23965509999834,81.23466870000266,81.23471360000258,81.23965509999834,81.93427360000351,81.94104589999915,,,,,,,,,,,,,,,,,,,,,,,,,,,,,,,,,,,,,,,,,,,,,,,,,,,,,,,,,,,,,,,001,motor,1,0,2024-08-01_10h10.10.457,ASRT_motor,2023.2.3,142.18198154969247,
sequences/_initial_random.csv,3,270,3,1,red,,,,0,0,0,0,0,21,21,21,,,,,,,,,,,,,,,,,,,,,,,,,,,,,81.94104589999915,,,,,,,,,,,,,81.93449320000218,81.94104589999915,81.94104589999915,82.14312310000241,82.27767550000135,1,1,0.3329539999976987,None,82.27830940000422,82.28394420000404,82.28394420000404,82.49020720000408,82.7002827000033,82.69278380000469,82.69283549999818,82.7002827000033,83.39826490000269,,,,,,,,,,,,,,,,,,,,,,,,,,,,,,,,,,,,,,,,,,,,,,,,,,,,,,,,,,,,,,,,001,motor,1,0,2024-08-01_10h10.10.457,ASRT_motor,2023.2.3,142.18198154969247,
sequences/_initial_random.csv,2,180,2,2,red,,,,0,0,0,0,0,22,22,22,,,,,,,,,,,,,,,,,,,,,,,,,,,,,83.40505249999842,,,,,,,,,,,,,83.3991995000033,83.40505249999842,83.40505249999842,83.60781600000337,83.88195629999973,2,1,0.47003419999964535,None,83.8827175999977,83.89037149999785,83.89037149999785,84.09389029999875,84.30217360000097,84.29624960000365,84.29628450000018,84.30217360000097,84.99720759999764,,,,,,,,,,,,,,,,,,,,,,,,,,,,,,,,,,,,,,,,,,,,,,,,,,,,,,,,,,,,,,,,001,motor,1,0,2024-08-01_10h10.10.457,ASRT_motor,2023.2.3,142.18198154969247,
sequences/_initial_random.csv,2,180,2,2,red,,,,0,0,0,0,0,23,23,23,,,,,,,,,,,,,,,,,,,,,,,,,,,,,85.00375280000299,,,,,,,,,,,,,84.9978912000006,85.00375280000299,85.00375280000299,85.20463530000416,85.46535679999943,2,1,0.45636589999776334,None,85.46701400000165,85.47545479999826,85.47545479999826,85.6775295999978,85.88577729999815,85.88009769999917,85.88014300000214,85.88577729999815,86.5802302000011,,,,,,,,,,,,,,,,,,,,,,,,,,,,,,,,,,,,,,,,,,,,,,,,,,,,,,,,,,,,,,,,001,motor,1,0,2024-08-01_10h10.10.457,ASRT_motor,2023.2.3,142.18198154969247,
sequences/_initial_random.csv,0,0,0,4,red,,,,0,0,0,0,0,24,24,24,,,,,,,,,,,,,,,,,,,,,,,,,,,,,86.58691520000139,,,,,,,,,,,,,86.58086010000261,86.58691520000139,86.58691520000139,86.78834800000186,86.93114900000364,4,1,0.34136329999455484,None,86.93198770000163,86.94228989999829,86.94228989999829,87.14315910000005,87.35277560000395,87.3462995000009,87.34636400000454,87.35277560000395,88.04720420000376,88.05295309999929,,,,,,,,,,,,,,,,,,,,,,,,,,,,,,,,,,,,,,,,,,,,,,,,,,,,,,,,,,,,,,,001,motor,1,0,2024-08-01_10h10.10.457,ASRT_motor,2023.2.3,142.18198154969247,
sequences/_initial_random.csv,0,0,0,4,red,,,,0,0,0,0,0,25,25,25,,,,,,,,,,,,,,,,,,,,,,,,,,,,,88.05295309999929,,,,,,,,,,,,,88.04784559999825,88.05295309999929,88.05295309999929,88.25401710000006,88.37612249999802,4,1,0.31881820000126027,None,88.37805920000392,88.38539940000192,88.38539940000192,88.5865963000033,88.79510519999894,88.78938639999978,88.7894185000041,88.79510519999894,89.48980200000369,,,,,,,,,,,,,,,,,,,,,,,,,,,,,,,,,,,,,,,,,,,,,,,,,,,,,,,,,,,,,,,,001,motor,1,0,2024-08-01_10h10.10.457,ASRT_motor,2023.2.3,142.18198154969247,
sequences/_initial_random.csv,2,180,2,2,red,,,,0,0,0,0,0,26,26,26,,,,,,,,,,,,,,,,,,,,,,,,,,,,,89.4970147999993,,,,,,,,,,,,,89.49044310000318,89.4970147999993,89.4970147999993,89.69786920000479,89.93935510000301,2,1,0.4389907000004314,None,89.94031220000033,89.94827749999968,89.94827749999968,90.14920800000255,90.357717400002,90.35178579999774,90.35181870000088,90.357717400002,91.05225259999861,,,,,,,,,,,,,,,,,,,,,,,,,,,,,,,,,,,,,,,,,,,,,,,,,,,,,,,,,,,,,,,,001,motor,1,0,2024-08-01_10h10.10.457,ASRT_motor,2023.2.3,142.18198154969247,
sequences/_initial_random.csv,0,0,0,4,red,,,,0,0,0,0,0,27,27,27,,,,,,,,,,,,,,,,,,,,,,,,,,,,,91.05899240000144,,,,,,,,,,,,,91.05295460000343,91.05899240000144,91.05899240000144,91.26061180000397,91.43257650000305,4,1,0.3693630000052508,None,91.43336470000213,91.44100310000067,91.44100310000067,91.64252629999828,91.851032700004,91.84528030000365,91.84533300000476,91.851032700004,92.5457183000035,,,,,,,,,,,,,,,,,,,,,,,,,,,,,,,,,,,,,,,,,,,,,,,,,,,,,,,,,,,,,,,,001,motor,1,0,2024-08-01_10h10.10.457,ASRT_motor,2023.2.3,142.18198154969247,
sequences/_initial_random.csv,0,0,0,4,red,,,,0,0,0,0,0,28,28,28,,,,,,,,,,,,,,,,,,,,,,,,,,,,,92.55214510000224,,,,,,,,,,,,,92.54623670000001,92.55214510000224,92.55214510000224,92.75389240000368,92.90815250000014,3,0,0.35187719999521505,None,92.90868649999902,92.917437600001,92.917437600001,93.12157740000112,93.33024660000228,93.3244990000021,93.32455080000364,93.33024660000228,94.02479160000075,,,,,,,,,,,,,,,,,,,,,,,,,,,,,,,,,,,,,,,,,,,,,,,,,,,,,,,,,,,,,,,,001,motor,1,0,2024-08-01_10h10.10.457,ASRT_motor,2023.2.3,142.18198154969247,
sequences/_initial_random.csv,2,180,2,2,red,,,,0,0,0,0,0,29,29,29,,,,,,,,,,,,,,,,,,,,,,,,,,,,,94.03312949999963,,,,,,,,,,,,,94.02577420000307,94.03312949999963,94.03312949999963,94.23280340000201,94.4817400000029,2,1,0.44088639999972656,None,94.48301280000305,94.49443450000399,94.49443450000399,94.69121360000281,94.89935710000282,94.8933778999999,94.89342610000313,94.89935710000282,95.59390220000205,,,,,,,,,,,,,,,,,,,,,,,,,,,,,,,,,,,,,,,,,,,,,,,,,,,,,,,,,,,,,,,,001,motor,1,0,2024-08-01_10h10.10.457,ASRT_motor,2023.2.3,142.18198154969247,
sequences/_initial_random.csv,3,270,3,1,red,,,,0,0,0,0,0,30,30,30,,,,,,,,,,,,,,,,,,,,,,,,,,,,,95.60075750000397,,,,,,,,,,,,,95.594734600003,95.60075750000397,95.60075750000397,95.80247380000219,95.97451939999883,1,1,0.3667790000035893,None,95.97591810000449,95.9884125000026,95.9884125000026,96.19091650000337,96.39914529999805,96.39319310000428,96.3932261000009,96.39914529999805,97.09431320000294,,,,,,,,,,,,,,,,,,,,,,,,,,,,,,,,,,,,,,,,,,,,,,,,,,,,,,,,,,,,,,,,001,motor,1,0,2024-08-01_10h10.10.457,ASRT_motor,2023.2.3,142.18198154969247,
sequences/_initial_random.csv,0,0,0,4,red,,,,0,0,0,0,0,31,31,31,,,,,,,,,,,,,,,,,,,,,,,,,,,,,97.1050594000044,,,,,,,,,,,,,97.09531060000154,97.1050594000044,97.1050594000044,97.3088706999988,97.44291610000073,4,1,0.3318910000016331,None,97.44355039999937,97.45004440000048,97.45004440000048,97.65639940000256,97.86410420000175,97.8585946000021,97.8586249,97.86410420000175,98.55950339999981,,,,,,,,,,,,,,,,,,,,,,,,,,,,,,,,,,,,,,,,,,,,,,,,,,,,,,,,,,,,,,,,001,motor,1,0,2024-08-01_10h10.10.457,ASRT_motor,2023.2.3,142.18198154969247,
sequences/_initial_random.csv,0,0,0,4,red,,,,0,0,0,0,0,32,32,32,,,,,,,,,,,,,,,,,,,,,,,,,,,,,98.5666515999983,,,,,,,,,,,,,98.56031530000473,98.5666515999983,98.5666515999983,98.76721399999951,98.89433880000433,4,1,0.32109560000390047,None,98.89491940000153,98.90074480000476,98.90074480000476,99.10740639999858,99.3161373000039,99.30957859999762,99.30960790000245,99.3161373000039,100.01071429999865,,,,,,,,,,,,,,,,,,,,,,,,,,,,,,,,,,,,,,,,,,,,,,,,,,,,,,,,,,,,,,,,001,motor,1,0,2024-08-01_10h10.10.457,ASRT_motor,2023.2.3,142.18198154969247,
sequences/_initial_random.csv,0,0,0,4,red,,,,0,0,0,0,0,33,33,33,,,,,,,,,,,,,,,,,,,,,,,,,,,,,100.01930179999908,,,,,,,,,,,,,100.01125490000413,100.01930179999908,100.01930179999908,100.21871580000152,100.31284220000089,4,1,0.2881973999974434,None,100.31349950000003,100.32008930000302,100.32008930000302,100.59809089999908,100.80614400000195,100.80040200000076,100.80044749999797,100.80614400000195,101.50125639999897,,,,,,,,,,,,,,,,,,,,,,,,,,,,,,,,,,,,,,,,,,,,,,,,,,,,,,,,,,,,,,,,001,motor,1,0,2024-08-01_10h10.10.457,ASRT_motor,2023.2.3,142.18198154969247,
sequences/_initial_random.csv,3,270,3,1,red,,,,0,0,0,0,0,34,34,34,,,,,,,,,,,,,,,,,,,,,,,,,,,,,101.50978990000294,,,,,,,,,,,,,101.50197019999905,101.50978990000294,101.50978990000294,101.70885470000212,101.94764080000459,1,1,0.4332198000047356,None,101.94824230000086,101.95585150000261,101.95585150000261,102.1638488000026,102.36928730000363,102.3637138999984,102.36375940000289,102.36928730000363,103.06422320000274,103.07027119999839,,,,,,,,,,,,,,,,,,,,,,,,,,,,,,,,,,,,,,,,,,,,,,,,,,,,,,,,,,,,,,,001,motor,1,0,2024-08-01_10h10.10.457,ASRT_motor,2023.2.3,142.18198154969247,
sequences/_initial_random.csv,0,0,0,4,red,,,,0,0,0,0,0,35,35,35,,,,,,,,,,,,,,,,,,,,,,,,,,,,,103.07027119999839,,,,,,,,,,,,,103.0648704999985,103.07027119999839,103.07027119999839,103.27190830000472,103.40127819999907,4,1,0.3232233999951859,None,103.40225009999995,103.41236950000166,103.41236950000166,103.61179429999902,103.82010270000319,103.81419930000266,103.81424600000173,103.82010270000319,104.51436439999816,,,,,,,,,,,,,,,,,,,,,,,,,,,,,,,,,,,,,,,,,,,,,,,,,,,,,,,,,,,,,,,,001,motor,1,0,2024-08-01_10h10.10.457,ASRT_motor,2023.2.3,142.18198154969247,
sequences/_initial_random.csv,1,90,1,3,red,,,,0,0,0,0,0,36,36,36,,,,,,,,,,,,,,,,,,,,,,,,,,,,,104.5224920000037,,,,,,,,,,,,,104.51501609999832,104.5224920000037,104.5224920000037,104.7228998999999,104.90607550000277,3,1,0.3784129999985453,None,104.90670250000403,104.91302330000326,104.91302330000326,105.11920470000041,105.32690960000036,105.32075079999777,105.32082459999947,105.32690960000036,106.02238940000098,,,,,,,,,,,,,,,,,,,,,,,,,,,,,,,,,,,,,,,,,,,,,,,,,,,,,,,,,,,,,,,,001,motor,1,0,2024-08-01_10h10.10.457,ASRT_motor,2023.2.3,142.18198154969247,
sequences/_initial_random.csv,1,90,1,3,red,,,,0,0,0,0,0,37,37,37,,,,,,,,,,,,,,,,,,,,,,,,,,,,,106.03028479999921,,,,,,,,,,,,,106.02302790000249,106.03028479999921,106.03028479999921,106.22971089999919,106.39817150000454,3,1,0.36334209999768063,None,106.39878789999784,106.4061376000027,106.4061376000027,106.61173450000206,106.82008009999845,106.81394359999831,106.81398089999857,106.82008009999845,107.51471200000378,,,,,,,,,,,,,,,,,,,,,,,,,,,,,,,,,,,,,,,,,,,,,,,,,,,,,,,,,,,,,,,,001,motor,1,0,2024-08-01_10h10.10.457,ASRT_motor,2023.2.3,142.18198154969247,
sequences/_initial_random.csv,3,270,3,1,red,,,,0,0,0,0,0,38,38,38,,,,,,,,,,,,,,,,,,,,,,,,,,,,,107.52163650000148,,,,,,,,,,,,,107.51580970000214,107.52163650000148,107.52163650000148,107.72277680000116,107.91311900000437,1,1,0.38833729999896605,None,107.91365750000114,107.92222559999936,107.92222559999936,108.12546200000361,108.33370460000151,108.32763720000366,108.32768310000392,108.33370460000151,109.0282068000015,,,,,,,,,,,,,,,,,,,,,,,,,,,,,,,,,,,,,,,,,,,,,,,,,,,,,,,,,,,,,,,,001,motor,1,0,2024-08-01_10h10.10.457,ASRT_motor,2023.2.3,142.18198154969247,
sequences/_initial_random.csv,3,270,3,1,red,,,,0,0,0,0,0,39,39,39,,,,,,,,,,,,,,,,,,,,,,,,,,,,,109.03528119999828,,,,,,,,,,,,,109.02869849999843,109.03528119999828,109.03528119999828,109.23674729999766,109.46171070000128,2,0,0.41992550000577467,None,109.46252700000332,109.47287009999854,109.47287009999854,109.67393830000219,109.88230979999935,109.87662339999952,109.87666460000037,109.88230979999935,110.57772670000122,,,,,,,,,,,,,,,,,,,,,,,,,,,,,,,,,,,,,,,,,,,,,,,,,,,,,,,,,,,,,,,,001,motor,1,0,2024-08-01_10h10.10.457,ASRT_motor,2023.2.3,142.18198154969247,
sequences/_initial_random.csv,1,90,1,3,red,,,,0,0,0,0,0,40,40,40,,,,,,,,,,,,,,,,,,,,,,,,,,,,,110.58405830000265,,,,,,,,,,,,,110.57824750000145,110.58405830000265,110.58405830000265,110.78500370000256,110.97184299999935,3,1,0.3823642999996082,None,110.97249159999774,110.98404619999928,110.98404619999928,111.18110719999822,111.38930650000111,111.38288860000466,111.38291800000297,111.38930650000111,112.08368540000083,,,,,,,,,,,,,,,,,,,,,,,,,,,,,,,,,,,,,,,,,,,,,,,,,,,,,,,,,,,,,,,,001,motor,1,0,2024-08-01_10h10.10.457,ASRT_motor,2023.2.3,142.18198154969247,
sequences/_initial_random.csv,3,270,3,1,red,,,,0,0,0,0,0,41,41,41,,,,,,,,,,,,,,,,,,,,,,,,,,,,,112.09068380000099,,,,,,,,,,,,,112.08411920000071,112.09068380000099,112.09068380000099,112.2927262000012,112.47501840000041,1,1,0.3774965999982669,None,112.47564960000454,112.48155899999983,112.48155899999983,112.687708999998,112.8961333000043,112.89055519999965,112.89060160000372,112.8961333000043,113.59084869999788,,,,,,,,,,,,,,,,,,,,,,,,,,,,,,,,,,,,,,,,,,,,,,,,,,,,,,,,,,,,,,,,001,motor,1,0,2024-08-01_10h10.10.457,ASRT_motor,2023.2.3,142.18198154969247,
sequences/_initial_random.csv,1,90,1,3,red,,,,0,0,0,0,0,42,42,42,,,,,,,,,,,,,,,,,,,,,,,,,,,,,113.59747480000078,,,,,,,,,,,,,113.59135280000191,113.59747480000078,113.59747480000078,113.7989768999978,113.99571690000448,3,1,0.39302089999546297,None,113.99640019999788,114.0011835999976,114.0011835999976,114.20856959999946,114.41691800000262,114.41126670000085,114.41131309999764,114.41691800000262,115.11210560000472,,,,,,,,,,,,,,,,,,,,,,,,,,,,,,,,,,,,,,,,,,,,,,,,,,,,,,,,,,,,,,,,001,motor,1,0,2024-08-01_10h10.10.457,ASRT_motor,2023.2.3,142.18198154969247,
sequences/_initial_random.csv,0,0,0,4,red,,,,0,0,0,0,0,43,43,43,,,,,,,,,,,,,,,,,,,,,,,,,,,,,115.11869409999781,,,,,,,,,,,,,115.1127706000043,115.11869409999781,115.11869409999781,115.32076070000039,115.50350079999771,4,1,0.3715418000065256,None,115.50464140000258,115.5128102000017,115.5128102000017,115.7085264999987,115.91788140000426,115.91477090000262,115.91480120000051,115.91788140000426,116.61345979999896,116.62287949999882,,,,,,,,,,,,,,,,,,,,,,,,,,,,,,,,,,,,,,,,,,,,,,,,,,,,,,,,,,,,,,,001,motor,1,0,2024-08-01_10h10.10.457,ASRT_motor,2023.2.3,142.18198154969247,
sequences/_initial_random.csv,3,270,3,1,red,,,,0,0,0,0,0,44,44,44,,,,,,,,,,,,,,,,,,,,,,,,,,,,,116.62287949999882,,,,,,,,,,,,,116.61404700000276,116.62287949999882,116.62287949999882,116.82692990000214,116.955618400003,1,1,0.3288325999965309,None,116.95634029999928,116.96328960000392,116.96328960000392,117.16719050000393,117.37537460000021,117.36952810000366,117.36957410000468,117.37537460000021,118.07034790000034,,,,,,,,,,,,,,,,,,,,,,,,,,,,,,,,,,,,,,,,,,,,,,,,,,,,,,,,,,,,,,,,001,motor,1,0,2024-08-01_10h10.10.457,ASRT_motor,2023.2.3,142.18198154969247,
sequences/_initial_random.csv,0,0,0,4,red,,,,0,0,0,0,0,45,45,45,,,,,,,,,,,,,,,,,,,,,,,,,,,,,118.07681279999815,,,,,,,,,,,,,118.07091519999813,118.07681279999815,118.07681279999815,118.27815600000031,118.43351190000249,4,1,0.3505306000006385,None,118.43416080000316,118.44053420000273,118.44053420000273,118.64622550000058,118.85903099999996,118.8529630999983,118.8530219000022,118.85903099999996,119.55633150000358,,,,,,,,,,,,,,,,,,,,,,,,,,,,,,,,,,,,,,,,,,,,,,,,,,,,,,,,,,,,,,,,001,motor,1,0,2024-08-01_10h10.10.457,ASRT_motor,2023.2.3,142.18198154969247,
sequences/_initial_random.csv,3,270,3,1,red,,,,0,0,0,0,0,46,46,46,,,,,,,,,,,,,,,,,,,,,,,,,,,,,119.56256230000145,,,,,,,,,,,,,119.55687860000035,119.56256230000145,119.56256230000145,119.76422309999907,119.90606770000159,1,1,0.3355483999985154,None,119.90682720000041,119.91368370000419,119.91368370000419,120.11826680000377,120.3263494999992,120.32058450000477,120.32062479999877,120.3263494999992,121.02177030000166,,,,,,,,,,,,,,,,,,,,,,,,,,,,,,,,,,,,,,,,,,,,,,,,,,,,,,,,,,,,,,,,001,motor,1,0,2024-08-01_10h10.10.457,ASRT_motor,2023.2.3,142.18198154969247,
sequences/_initial_random.csv,2,180,2,2,red,,,,0,0,0,0,0,47,47,47,,,,,,,,,,,,,,,,,,,,,,,,,,,,,121.02863340000476,,,,,,,,,,,,,121.02239080000436,121.02863340000476,121.02863340000476,121.22958079999808,121.51608970000234,2,1,0.4839577000020654,None,121.51659939999809,121.52167420000478,121.52167420000478,121.72901699999784,121.9376099000001,121.93131279999943,121.93134120000468,121.9376099000001,122.63250020000123,,,,,,,,,,,,,,,,,,,,,,,,,,,,,,,,,,,,,,,,,,,,,,,,,,,,,,,,,,,,,,,,001,motor,1,0,2024-08-01_10h10.10.457,ASRT_motor,2023.2.3,142.18198154969247,
sequences/_initial_random.csv,1,90,1,3,red,,,,0,0,0,0,0,48,48,48,,,,,,,,,,,,,,,,,,,,,,,,,,,,,122.63937499999884,,,,,,,,,,,,,122.63331420000031,122.63937499999884,122.63937499999884,122.8405658000047,123.04630670000188,3,1,0.4022121999951196,None,123.04702009999892,123.05330230000254,123.05330230000254,123.25714080000034,123.46517360000144,123.45943210000405,123.45947429999796,123.46517360000144,124.15991419999773,,,,,,,,,,,,,,,,,,,,,,,,,,,,,,,,,,,,,,,,,,,,,,,,,,,,,,,,,,,,,,,,001,motor,1,0,2024-08-01_10h10.10.457,ASRT_motor,2023.2.3,142.18198154969247,
sequences/_initial_random.csv,0,0,0,4,red,,,,0,0,0,0,0,49,49,49,,,,,,,,,,,,,,,,,,,,,,,,,,,,,124.16712700000062,,,,,,,,,,,,,124.16034229999786,124.16712700000062,124.16712700000062,124.36833489999844,124.54046300000482,3,0,0.36673940000036964,None,124.541361399999,124.55372590000479,124.55372590000479,124.75055100000463,124.95845399999962,124.9529623999988,124.95300549999956,124.95845399999962,125.65281810000306,125.6596434000021,,,,,,,,,,,,,,,,,,,,,,,,,,,,,,,,,,,,,,,,,,,,,,,,,,,,,,,,,,,,,,,001,motor,1,0,2024-08-01_10h10.10.457,ASRT_motor,2023.2.3,142.18198154969247,
sequences/_initial_random.csv,3,270,3,1,red,,,,0,0,0,0,0,50,50,50,,,,,,,,,,,,,,,,,,,,,,,,,,,,,125.6596434000021,,,,,,,,,,,,,125.65304180000385,125.6596434000021,125.6596434000021,125.86150610000186,126.07356900000013,1,1,0.4107519999961369,None,126.07432069999777,126.08049169999867,126.08049169999867,126.28446149999945,126.49326020000444,126.48723849999806,126.48727589999908,126.49326020000444,127.18807840000227,,,,,,,,,,,,,,,,,,,,,,,,,,,,,,,,,,,,,,,,,,,,,,,,,,,,,,,,,,,,,,,,001,motor,1,0,2024-08-01_10h10.10.457,ASRT_motor,2023.2.3,142.18198154969247,
sequences/_initial_random.csv,1,90,1,3,red,,,,0,0,0,0,0,51,51,51,,,,,,,,,,,,,,,,,,,,,,,,,,,,,127.19578349999938,,,,,,,,,,,,,127.18895519999933,127.19578349999938,127.19578349999938,127.3961311000021,127.57970719999867,3,1,0.37997240000549937,None,127.58042479999858,127.58633720000216,127.58633720000216,127.79157380000106,127.99992460000067,127.99425390000397,127.99428959999932,127.99992460000067,128.6946958999979,,,,,,,,,,,,,,,,,,,,,,,,,,,,,,,,,,,,,,,,,,,,,,,,,,,,,,,,,,,,,,,,001,motor,1,0,2024-08-01_10h10.10.457,ASRT_motor,2023.2.3,142.18198154969247,
sequences/_initial_random.csv,2,180,2,2,red,,,,0,0,0,0,0,52,52,52,,,,,,,,,,,,,,,,,,,,,,,,,,,,,128.70145290000073,,,,,,,,,,,,,128.6956294000047,128.70145290000073,128.70145290000073,128.90290420000383,129.14210170000297,2,1,0.4377520000052755,None,129.14263850000134,129.1473588000008,129.1473588000008,129.35410350000166,129.5629390000031,129.55654669999785,129.55659240000386,129.5629390000031,130.25708219999797,,,,,,,,,,,,,,,,,,,,,,,,,,,,,,,,,,,,,,,,,,,,,,,,,,,,,,,,,,,,,,,,001,motor,1,0,2024-08-01_10h10.10.457,ASRT_motor,2023.2.3,142.18198154969247,
sequences/_initial_random.csv,3,270,3,1,red,,,,0,0,0,0,0,53,53,53,,,,,,,,,,,,,,,,,,,,,,,,,,,,,130.26459859999886,,,,,,,,,,,,,130.25775509999949,130.26459859999886,130.26459859999886,130.4653430000035,130.61449549999816,1,1,0.34254990000044927,None,130.61527899999783,130.62606049999886,130.62606049999886,130.82656169999973,131.03455000000395,131.0287457000013,131.02881000000343,131.03455000000395,131.72944590000407,,,,,,,,,,,,,,,,,,,,,,,,,,,,,,,,,,,,,,,,,,,,,,,,,,,,,,,,,,,,,,,,001,motor,1,0,2024-08-01_10h10.10.457,ASRT_motor,2023.2.3,142.18198154969247,
sequences/_initial_random.csv,3,270,3,1,red,,,,0,0,0,0,0,54,54,54,,,,,,,,,,,,,,,,,,,,,,,,,,,,,131.73636940000142,,,,,,,,,,,,,131.73033489999943,131.73636940000142,131.73636940000142,131.93752010000026,132.07076780000352,1,1,0.3277271000042674,None,132.07153180000023,132.07689180000307,132.07689180000307,132.28434849999758,132.49302360000001,132.4874650999991,132.48751730000367,132.49302360000001,133.18764399999782,,,,,,,,,,,,,,,,,,,,,,,,,,,,,,,,,,,,,,,,,,,,,,,,,,,,,,,,,,,,,,,,001,motor,1,0,2024-08-01_10h10.10.457,ASRT_motor,2023.2.3,142.18198154969247,
sequences/_initial_random.csv,1,90,1,3,red,,,,0,0,0,0,0,55,55,55,,,,,,,,,,,,,,,,,,,,,,,,,,,,,133.19503290000284,,,,,,,,,,,,,133.1882501,133.19503290000284,133.19503290000284,133.39580009999918,133.53578550000384,3,1,0.33385890000499785,None,133.5362324000016,133.54121419999865,133.54121419999865,133.75000530000398,133.95822459999908,133.95231040000363,133.9523491,133.95822459999908,134.65262110000185,,,,,,,,,,,,,,,,,,,,,,,,,,,,,,,,,,,,,,,,,,,,,,,,,,,,,,,,,,,,,,,,001,motor,1,0,2024-08-01_10h10.10.457,ASRT_motor,2023.2.3,142.18198154969247,
sequences/_initial_random.csv,0,0,0,4,red,,,,0,0,0,0,0,56,56,56,,,,,,,,,,,,,,,,,,,,,,,,,,,,,134.6595812000014,,,,,,,,,,,,,134.65318169999955,134.6595812000014,134.6595812000014,134.8610478000046,135.01739390000148,4,1,0.35462819999520434,None,135.01797510000324,135.02515950000088,135.02515950000088,135.22910180000326,135.43744190000143,135.4317164000022,135.43175899999915,135.43744190000143,136.13219770000433,,,,,,,,,,,,,,,,,,,,,,,,,,,,,,,,,,,,,,,,,,,,,,,,,,,,,,,,,,,,,,,,001,motor,1,0,2024-08-01_10h10.10.457,ASRT_motor,2023.2.3,142.18198154969247,
sequences/_initial_random.csv,2,180,2,2,red,,,,0,0,0,0,0,57,57,57,,,,,,,,,,,,,,,,,,,,,,,,,,,,,136.13868889999867,,,,,,,,,,,,,136.1328205000027,136.13868889999867,136.13868889999867,136.34026270000322,136.64822400000412,2,1,0.5047487000047113,None,136.64876540000114,136.65604010000243,136.65604010000243,136.86116720000427,137.0692510000008,137.06315900000482,137.0631926999995,137.0692510000008,137.76489610000135,,,,,,,,,,,,,,,,,,,,,,,,,,,,,,,,,,,,,,,,,,,,,,,,,,,,,,,,,,,,,,,,001,motor,1,0,2024-08-01_10h10.10.457,ASRT_motor,2023.2.3,142.18198154969247,
sequences/_initial_random.csv,3,270,3,1,red,,,,0,0,0,0,0,58,58,58,,,,,,,,,,,,,,,,,,,,,,,,,,,,,137.77526139999827,,,,,,,,,,,,,137.76600090000284,137.77526139999827,137.77526139999827,137.97883179999917,138.26154739999765,1,1,0.4825094999978319,None,138.26251910000428,138.27359330000036,138.27359330000036,138.47177550000197,138.68077800000174,138.67432890000055,138.6743673000019,138.68077800000174,139.3750782999996,,,,,,,,,,,,,,,,,,,,,,,,,,,,,,,,,,,,,,,,,,,,,,,,,,,,,,,,,,,,,,,,001,motor,1,0,2024-08-01_10h10.10.457,ASRT_motor,2023.2.3,142.18198154969247,
sequences/_initial_random.csv,1,90,1,3,red,,,,0,0,0,0,0,59,59,59,,,,,,,,,,,,,,,,,,,,,,,,,,,,,139.38172260000283,,,,,,,,,,,,,139.37569120000262,139.38172260000283,139.38172260000283,139.5838401000001,139.82409980000375,3,1,0.43783819999953266,None,139.82492240000283,139.83232220000355,139.83232220000355,140.03452200000174,140.2431007999985,140.23699280000437,140.23703920000116,140.2431007999985,140.93762889999925,,,,,,,,,,,,,,,,,,,,,,,,,,,,,,,,,,,,,,,,,,,,,,,,,,,,,,,,,,,,,,,,001,motor,1,0,2024-08-01_10h10.10.457,ASRT_motor,2023.2.3,142.18198154969247,
sequences/_initial_random.csv,2,180,2,2,red,,,,0,0,0,0,0,60,60,60,,,,,,,,,,,,,,,,,,,,,,,,,,,,,140.94411899999977,,,,,,,,,,,,,140.93819480000093,140.94411899999977,140.94411899999977,141.14581049999833,141.44727039999998,2,1,0.5006504999983008,None,141.44807160000346,141.45359080000344,141.45359080000344,141.65951230000064,141.86907690000226,141.86296779999975,141.8630286999978,141.86907690000226,142.56311290000303,,,,,,,,,,,,,,,,,,,,,,,,,,,,,,,,,,,,,,,,,,,,,,,,,,,,,,,,,,,,,,,,001,motor,1,0,2024-08-01_10h10.10.457,ASRT_motor,2023.2.3,142.18198154969247,
sequences/_initial_random.csv,1,90,1,3,red,,,,0,0,0,0,0,61,61,61,,,,,,,,,,,,,,,,,,,,,,,,,,,,,142.57148949999828,,,,,,,,,,,,,142.56399919999967,142.57148949999828,142.57148949999828,142.77738089999912,142.9481625999979,3,1,0.36736560000281315,None,142.94859500000166,142.95635590000165,142.95635590000165,143.15933020000375,143.36768860000302,143.3616081,143.36163870000019,143.36768860000302,144.0621861000036,,,,,,,,,,,,,,,,,,,,,,,,,,,,,,,,,,,,,,,,,,,,,,,,,,,,,,,,,,,,,,,,001,motor,1,0,2024-08-01_10h10.10.457,ASRT_motor,2023.2.3,142.18198154969247,
sequences/_initial_random.csv,3,270,3,1,red,,,,0,0,0,0,0,62,62,62,,,,,,,,,,,,,,,,,,,,,,,,,,,,,144.0694827999978,,,,,,,,,,,,,144.062691799998,144.0694827999978,144.0694827999978,144.27039050000167,144.4808320000011,1,1,0.4043126999968081,None,144.48141410000244,144.48833240000386,144.48833240000386,144.69421259999945,144.90221929999825,144.89658059999783,144.89661540000088,144.90221929999825,145.59726680000313,,,,,,,,,,,,,,,,,,,,,,,,,,,,,,,,,,,,,,,,,,,,,,,,,,,,,,,,,,,,,,,,001,motor,1,0,2024-08-01_10h10.10.457,ASRT_motor,2023.2.3,142.18198154969247,
sequences/_initial_random.csv,2,180,2,2,red,,,,0,0,0,0,0,63,63,63,,,,,,,,,,,,,,,,,,,,,,,,,,,,,145.6034598999977,,,,,,,,,,,,,145.59784400000353,145.6034598999977,145.6034598999977,145.80549510000128,145.9613473999998,2,1,0.3528593000010005,None,145.96203550000064,145.97092600000178,145.97092600000178,146.1732955999978,146.38656170000468,146.37978860000294,146.37986330000422,146.38656170000468,147.08321979999891,,,,,,,,,,,,,,,,,,,,,,,,,,,,,,,,,,,,,,,,,,,,,,,,,,,,,,,,,,,,,,,,001,motor,1,0,2024-08-01_10h10.10.457,ASRT_motor,2023.2.3,142.18198154969247,
sequences/_initial_random.csv,3,270,3,1,red,,,,0,0,0,0,0,64,64,64,,,,,,,,,,,,,,,,,,,,,,,,,,,,,147.089727700004,,,,,,,,,,,,,147.08393449999858,147.089727700004,147.089727700004,147.29156599999988,147.5583392999979,1,1,0.4658175000004121,None,147.55902510000305,147.56470570000238,147.56470570000238,147.77039940000395,147.97897170000215,147.9730750000017,147.97309990000213,147.97897170000215,148.6732267000043,,,,,,,,,,,,,,,,,,,,,,,,,,,,,,,,,,,,,,,,,,,,,,,,,,,,,,,,,,,,,,,,001,motor,1,0,2024-08-01_10h10.10.457,ASRT_motor,2023.2.3,142.18198154969247,
sequences/_initial_random.csv,3,270,3,1,red,,,,0,0,0,0,0,65,65,65,,,,,,,,,,,,,,,,,,,,,,,,,,,,,148.6799117000046,,,,,,,,,,,,,148.67363420000038,148.6799117000046,148.6799117000046,148.8819674000042,149.06601919999957,1,1,0.3788526999996975,None,149.06650629999785,149.0724457000033,149.0724457000033,149.27744050000183,149.4859895000045,149.47966219999944,149.47969739999826,149.4859895000045,150.18041729999823,,,,,,,,,,,,,,,,,,,,,,,,,,,,,,,,,,,,,,,,,,,,,,,,,,,,,,,,,,,,,,,,001,motor,1,0,2024-08-01_10h10.10.457,ASRT_motor,2023.2.3,142.18198154969247,
sequences/_initial_random.csv,3,270,3,1,red,,,,0,0,0,0,0,66,66,66,,,,,,,,,,,,,,,,,,,,,,,,,,,,,150.18714439999894,,,,,,,,,,,,,150.18096840000362,150.18714439999894,150.18714439999894,150.3882109000042,150.52865569999994,1,1,0.3297189000004437,None,150.52980509999907,150.54120250000415,150.54120250000415,150.75015379999968,150.95781510000234,150.95214970000234,150.95219580000412,150.95781510000234,151.65280200000416,,,,,,,,,,,,,,,,,,,,,,,,,,,,,,,,,,,,,,,,,,,,,,,,,,,,,,,,,,,,,,,,001,motor,1,0,2024-08-01_10h10.10.457,ASRT_motor,2023.2.3,142.18198154969247,
sequences/_initial_random.csv,0,0,0,4,red,,,,0,0,0,0,0,67,67,67,,,,,,,,,,,,,,,,,,,,,,,,,,,,,151.65945640000427,,,,,,,,,,,,,151.65343060000305,151.65945640000427,151.65945640000427,151.86085280000407,152.03011780000088,4,1,0.36282320000464097,None,152.03075669999816,152.03745250000065,152.03745250000065,152.2424635999996,152.45074790000217,152.4453816000023,152.44543120000162,152.45074790000217,153.14602829999785,153.1519593999983,,,,,,,,,,,,,,,,,,,,,,,,,,,,,,,,,,,,,,,,,,,,,,,,,,,,,,,,,,,,,,,001,motor,1,0,2024-08-01_10h10.10.457,ASRT_motor,2023.2.3,142.18198154969247,
sequences/_initial_random.csv,2,180,2,2,red,,,,0,0,0,0,0,68,68,68,,,,,,,,,,,,,,,,,,,,,,,,,,,,,153.1519593999983,,,,,,,,,,,,,153.146536500004,153.1519593999983,153.1519593999983,153.35412190000352,153.6535770000046,2,1,0.49681549999513663,None,153.65406590000202,153.65913520000322,153.65913520000322,153.86772159999964,154.07587900000362,154.06976920000307,154.0698046000034,154.07587900000362,154.77032139999937,,,,,,,,,,,,,,,,,,,,,,,,,,,,,,,,,,,,,,,,,,,,,,,,,,,,,,,,,,,,,,,,001,motor,1,0,2024-08-01_10h10.10.457,ASRT_motor,2023.2.3,142.18198154969247,
sequences/_initial_random.csv,0,0,0,4,red,,,,0,0,0,0,0,69,69,69,,,,,,,,,,,,,,,,,,,,,,,,,,,,,154.7769866000017,,,,,,,,,,,,,154.7709823000041,154.7769866000017,154.7769866000017,154.97909439999785,155.16759670000465,4,1,0.38691120000294177,None,155.16825280000194,155.1755415000007,155.1755415000007,155.38123170000472,155.59004370000184,155.58440169999812,155.58446070000355,155.59004370000184,156.2853757999983,,,,,,,,,,,,,,,,,,,,,,,,,,,,,,,,,,,,,,,,,,,,,,,,,,,,,,,,,,,,,,,,001,motor,1,0,2024-08-01_10h10.10.457,ASRT_motor,2023.2.3,142.18198154969247,
sequences/_initial_random.csv,3,270,3,1,red,,,,0,0,0,0,0,70,70,70,,,,,,,,,,,,,,,,,,,,,,,,,,,,,156.28998649999994,,,,,,,,,,,,,156.28598929999862,156.28998649999994,156.28998649999994,156.49234280000383,156.61307279999892,1,1,0.32053219999943394,None,156.61371959999815,156.620393600002,156.620393600002,156.82560840000224,157.04591639999853,157.03899629999796,157.03908310000406,157.04591639999853,157.74309250000078,,,,,,,,,,,,,,,,,,,,,,,,,,,,,,,,,,,,,,,,,,,,,,,,,,,,,,,,,,,,,,,,001,motor,1,0,2024-08-01_10h10.10.457,ASRT_motor,2023.2.3,142.18198154969247,
sequences/_initial_random.csv,1,90,1,3,red,,,,0,0,0,0,0,71,71,71,,,,,,,,,,,,,,,,,,,,,,,,,,,,,157.75105350000376,,,,,,,,,,,,,157.74381490000087,157.75105350000376,157.75105350000376,157.95086499999888,158.12604799999826,3,1,0.37294439999823226,None,158.12649670000246,158.1336381000001,158.1336381000001,158.3480727999995,158.54790640000283,158.54250909999973,158.54256850000093,158.54790640000283,159.2428715999995,,,,,,,,,,,,,,,,,,,,,,,,,,,,,,,,,,,,,,,,,,,,,,,,,,,,,,,,,,,,,,,,001,motor,1,0,2024-08-01_10h10.10.457,ASRT_motor,2023.2.3,142.18198154969247,
sequences/_initial_random.csv,3,270,3,1,red,,,,0,0,0,0,0,72,72,72,,,,,,,,,,,,,,,,,,,,,,,,,,,,,159.24961379999877,,,,,,,,,,,,,159.2435201000044,159.24961379999877,159.24961379999877,159.44539749999967,159.56483570000273,1,1,0.3083249000046635,None,159.5656314000007,159.57237040000473,159.57237040000473,159.77719649999926,159.98552930000005,159.97963610000443,159.9796783999991,159.98552930000005,160.68038779999915,,,,,,,,,,,,,,,,,,,,,,,,,,,,,,,,,,,,,,,,,,,,,,,,,,,,,,,,,,,,,,,,001,motor,1,0,2024-08-01_10h10.10.457,ASRT_motor,2023.2.3,142.18198154969247,
sequences/_initial_random.csv,1,90,1,3,red,,,,0,0,0,0,0,73,73,73,,,,,,,,,,,,,,,,,,,,,,,,,,,,,160.6872474000047,,,,,,,,,,,,,160.6810201000044,160.6872474000047,160.6872474000047,160.8882855000047,161.06441300000006,3,1,0.3707090000025346,None,161.06505150000157,161.07283689999895,161.07283689999895,161.27685990000464,161.48568450000312,161.47997359999863,161.4800189000016,161.48568450000312,162.18045240000356,,,,,,,,,,,,,,,,,,,,,,,,,,,,,,,,,,,,,,,,,,,,,,,,,,,,,,,,,,,,,,,,001,motor,1,0,2024-08-01_10h10.10.457,ASRT_motor,2023.2.3,142.18198154969247,
sequences/_initial_random.csv,0,0,0,4,red,,,,0,0,0,0,0,74,74,74,,,,,,,,,,,,,,,,,,,,,,,,,,,,,162.18891689999873,,,,,,,,,,,,,162.18123510000441,162.18891689999873,162.18891689999873,162.38888469999802,162.52423709999857,4,1,0.33097989999805577,None,162.5250515000007,162.53133620000153,162.53133620000153,162.73550899999827,162.94360869999946,162.93844320000062,162.93848150000122,162.94360869999946,163.63901869999972,163.6447369000016,,,,,,,,,,,,,,,,,,,,,,,,,,,,,,,,,,,,,,,,,,,,,,,,,,,,,,,,,,,,,,,001,motor,1,0,2024-08-01_10h10.10.457,ASRT_motor,2023.2.3,142.18198154969247,
sequences/_initial_random.csv,2,180,2,2,red,,,,0,0,0,0,0,75,75,75,,,,,,,,,,,,,,,,,,,,,,,,,,,,,163.6447369000016,,,,,,,,,,,,,163.63951059999818,163.6447369000016,163.6447369000016,163.84675660000357,164.2661722000048,2,1,0.6157351000001654,None,164.26699519999966,164.27469510000083,164.27469510000083,164.47846589999972,164.68716230000427,164.68130139999994,164.68134629999986,164.68716230000427,165.38221219999832,165.38805330000469,,,,,,,,,,,,,,,,,,,,,,,,,,,,,,,,,,,,,,,,,,,,,,,,,,,,,,,,,,,,,,,001,motor,1,0,2024-08-01_10h10.10.457,ASRT_motor,2023.2.3,142.18198154969247,
sequences/_initial_random.csv,1,90,1,3,red,,,,0,0,0,0,0,76,76,76,,,,,,,,,,,,,,,,,,,,,,,,,,,,,165.38805330000469,,,,,,,,,,,,,165.38268049999897,165.38805330000469,165.38805330000469,165.58977620000223,165.786351499999,3,1,0.39520149999589194,None,165.78692379999848,165.79224450000038,165.79224450000038,165.9994527000017,166.20741020000423,166.20096909999847,166.2009956000038,166.20741020000423,166.9030475000036,,,,,,,,,,,,,,,,,,,,,,,,,,,,,,,,,,,,,,,,,,,,,,,,,,,,,,,,,,,,,,,,001,motor,1,0,2024-08-01_10h10.10.457,ASRT_motor,2023.2.3,142.18198154969247,
sequences/_initial_random.csv,2,180,2,2,red,,,,0,0,0,0,0,77,77,77,,,,,,,,,,,,,,,,,,,,,,,,,,,,,166.90975379999873,,,,,,,,,,,,,166.90385989999777,166.90975379999873,166.90975379999873,167.11047020000115,167.36931950000144,2,1,0.4524482999986503,None,167.36985010000353,167.3747186000037,167.3747186000037,167.58259309999994,167.79080439999962,167.78502630000003,167.78506070000003,167.79080439999962,168.4860314000034,,,,,,,,,,,,,,,,,,,,,,,,,,,,,,,,,,,,,,,,,,,,,,,,,,,,,,,,,,,,,,,,001,motor,1,0,2024-08-01_10h10.10.457,ASRT_motor,2023.2.3,142.18198154969247,
sequences/_initial_random.csv,1,90,1,3,red,,,,0,0,0,0,0,78,78,78,,,,,,,,,,,,,,,,,,,,,,,,,,,,,168.49276349999855,,,,,,,,,,,,,168.486825400003,168.49276349999855,168.49276349999855,168.69384569999966,168.9103587999998,3,1,0.4133062000037171,None,168.91089490000013,168.9158219000019,168.9158219000019,169.12378210000315,169.33583920000092,169.32888919999823,169.32893049999984,169.33583920000092,170.0339851000026,,,,,,,,,,,,,,,,,,,,,,,,,,,,,,,,,,,,,,,,,,,,,,,,,,,,,,,,,,,,,,,,001,motor,1,0,2024-08-01_10h10.10.457,ASRT_motor,2023.2.3,142.18198154969247,
sequences/_initial_random.csv,1,90,1,3,red,,,,0,0,0,0,0,79,79,79,,,,,,,,,,,,,,,,,,,,,,,,,,,,,170.04068060000282,,,,,,,,,,,,,170.03479170000355,170.04068060000282,170.04068060000282,170.242450800004,170.3843216000023,3,1,0.3407424000033643,None,170.3850156999979,170.39175550000073,170.39175550000073,170.59792749999906,170.80827590000263,170.8011043000006,170.80121180000424,170.80827590000263,171.50667010000325,,,,,,,,,,,,,,,,,,,,,,,,,,,,,,,,,,,,,,,,,,,,,,,,,,,,,,,,,,,,,,,,001,motor,1,0,2024-08-01_10h10.10.457,ASRT_motor,2023.2.3,142.18198154969247,
sequences/_initial_random.csv,2,180,2,2,red,,,,0,0,0,0,0,80,80,80,,,,,,,,,,,,,,,,,,,,,,,,,,,,,171.51470900000277,,,,,,,,,,,,,171.5073823999992,171.51470900000277,171.51470900000277,171.7142856999999,171.93232559999888,2,1,0.4099939999941853,None,171.93301369999972,171.93940060000023,171.93940060000023,172.1448875999995,172.35506919999898,172.34820559999935,172.3482573000001,172.35506919999898,173.04902160000347,173.0572936000026,,,,,,,,,,,,,,,,,,,,,,,,,,,,,,,,,,,,,,,,,,,,,,,,,,,,,,,,,,,,,,,001,motor,1,0,2024-08-01_10h10.10.457,ASRT_motor,2023.2.3,142.18198154969247,
sequences/_initial_random.csv,2,180,2,2,red,,,,0,0,0,0,0,81,81,81,,,,,,,,,,,,,,,,,,,,,,,,,,,,,173.0572936000026,,,,,,,,,,,,,173.0497936000029,173.0572936000026,173.0572936000026,173.26297730000078,173.431431099998,2,1,0.3690210999993724,None,173.43209120000392,173.43995420000283,173.43995420000283,173.64727670000138,173.85335209999903,173.84732510000322,173.8473610000001,173.85335209999903,174.54779260000214,,,,,,,,,,,,,,,,,,,,,,,,,,,,,,,,,,,,,,,,,,,,,,,,,,,,,,,,,,,,,,,,001,motor,1,0,2024-08-01_10h10.10.457,ASRT_motor,2023.2.3,142.18198154969247,
sequences/_initial_random.csv,0,0,0,4,red,,,,0,0,0,0,0,82,82,82,,,,,,,,,,,,,,,,,,,,,,,,,,,,,174.5546886000011,,,,,,,,,,,,,174.5482994999984,174.5546886000011,174.5546886000011,174.75589449999825,174.9306007999985,4,1,0.3715167999980622,None,174.9319975000035,174.94504479999887,174.94504479999887,175.1396562000009,175.34618169999885,175.34126149999793,175.341307900002,175.34618169999885,176.04155000000173,176.04798029999802,,,,,,,,,,,,,,,,,,,,,,,,,,,,,,,,,,,,,,,,,,,,,,,,,,,,,,,,,,,,,,,001,motor,1,0,2024-08-01_10h10.10.457,ASRT_motor,2023.2.3,142.18198154969247,
sequences/_initial_random.csv,2,180,2,2,red,,,,0,0,0,0,0,83,83,83,,,,,,,,,,,,,,,,,,,,,,,,,,,,,176.04798029999802,,,,,,,,,,,,,176.04231750000326,176.04798029999802,176.04798029999802,176.2499308999977,176.40469960000337,2,1,0.34891820000484586,None,176.40556520000246,176.41410200000246,176.41410200000246,176.61706969999796,176.82620190000307,176.8203993999996,176.82041970000137,176.82620190000307,177.5199739000018,177.527147599998,,,,,,,,,,,,,,,,,,,,,,,,,,,,,,,,,,,,,,,,,,,,,,,,,,,,,,,,,,,,,,,001,motor,1,0,2024-08-01_10h10.10.457,ASRT_motor,2023.2.3,142.18198154969247,
sequences/_initial_random.csv,2,180,2,2,red,,,,0,0,0,0,0,84,84,84,,,,,,,,,,,,,,,,,,,,,,,,,,,,,177.527147599998,,,,,,,,,,,,,177.52037189999828,177.527147599998,177.527147599998,177.72858039999846,177.8853220000019,2,1,0.35486020000098506,None,177.88604560000385,177.892233700004,177.892233700004,178.09837490000064,178.30433070000436,178.29925560000265,178.29939449999802,178.30433070000436,179.00140480000118,179.1135198999982,,,,,,,,,,,,,,,,,,,,,,,,,,,,,,,,,,,,,,,,,,,,,,,,,,,,,,,,,,,,,,,001,motor,1,0,2024-08-01_10h10.10.457,ASRT_motor,2023.2.3,142.18198154969247,
,,,,,,,,,,,,,,,,,,,,,,,,,,,,,,,,,,,,,,,,,,,,,,,,,,,,,,,,,,,,,,,,,,,,,,,,,,,,,179.001760799998,179.1135198999982,179.1135198999982,183.11400710000453,213.08902690000104,space,33.971693399995274,None,213.0900385999994,213.0997473000025,213.0997473000025,213.0997473000025,245.33769140000368,space,32.231183999996574,None,,,,,,,,,,,,,,,,,,,,,,,,,,,,,,,,,,,,,,,,,,,,,,,001,motor,1,0,2024-08-01_10h10.10.457,ASRT_motor,2023.2.3,142.18198154969247,
,1,90,2,2,red,sequences/_practice_sequence_00.csv,,,,,,,,,,,0,0,0,0,0,0,0,71,,,,,,,,,,,,,,,,,,,,,246.4056447000039,,,,,,,,,,245.3732844000042,245.3770588999978,246.3422326,246.39959700000327,246.4056447000039,246.4056447000039,246.60572050000337,246.99224459999823,2,1,0.5809866999989026,None,246.9948027999999,247.0065623000046,247.0065623000046,247.2034480000002,247.41262740000093,247.40626260000136,247.40632870000263,247.41262740000093,248.10685300000478,,,,,,,,,,,,,,,,,,,,,,,,,,,,,,,,,,,,,,,,,,,,,,,,,,,,,,,,,,,,,,,,001,motor,1,0,2024-08-01_10h10.10.457,ASRT_motor,2023.2.3,142.18198154969247,
,0,0,1,3,red,sequences/_practice_sequence_00.csv,,,,,,,,,,,0,0,0,0,0,1,1,58,,,,,,,,,,,,,,,,,,,,,248.11335610000242,,,,,,,,,,,,,248.10753059999843,248.11335610000242,248.11335610000242,248.31433800000377,248.89379449999979,3,1,0.7729866999943624,None,248.89457779999793,248.90279060000466,248.90279060000466,249.10584080000262,249.31434370000352,249.3087949000037,249.30884530000185,249.31434370000352,250.01018320000003,250.01847790000465,,,,,,,,,,,,,,,,,,,,,,,,,,,,,,,,,,,,,,,,,,,,,,,,,,,,,,,,,,,,,,,001,motor,1,0,2024-08-01_10h10.10.457,ASRT_motor,2023.2.3,142.18198154969247,
,1,90,2,2,red,sequences/_practice_sequence_00.csv,,,,,,,,,,,0,0,0,0,0,2,2,40,,,,,,,,,,,,,,,,,,,,,250.01847790000465,,,,,,,,,,,,,250.0109003000034,250.01847790000465,250.01847790000465,250.2235015000042,250.64620470000227,2,1,0.6248734000037075,None,250.64698760000465,250.6530236000035,250.6530236000035,250.8487804000033,251.05703709999943,251.05167839999922,251.05172129999846,251.05703709999943,251.75312990000384,,,,,,,,,,,,,,,,,,,,,,,,,,,,,,,,,,,,,,,,,,,,,,,,,,,,,,,,,,,,,,,,001,motor,1,0,2024-08-01_10h10.10.457,ASRT_motor,2023.2.3,142.18198154969247,
,1,90,2,2,red,sequences/_practice_sequence_00.csv,,,,,,,,,,,0,0,0,0,0,3,3,57,,,,,,,,,,,,,,,,,,,,,251.76231220000045,,,,,,,,,,,,,251.7542844999989,251.76231220000045,251.76231220000045,251.96696099999826,252.28351269999985,2,1,0.5180731000000378,None,252.28446280000207,252.29120910000347,252.29120910000347,252.4947314000019,252.7029634999999,252.69786749999912,252.69788289999997,252.7029634999999,253.39887409999938,253.40695050000068,,,,,,,,,,,,,,,,,,,,,,,,,,,,,,,,,,,,,,,,,,,,,,,,,,,,,,,,,,,,,,,001,motor,1,0,2024-08-01_10h10.10.457,ASRT_motor,2023.2.3,142.18198154969247,
,2,180,3,1,red,sequences/_practice_sequence_00.csv,,,,,,,,,,,0,0,0,0,0,4,4,34,,,,,,,,,,,,,,,,,,,,,253.40695050000068,,,,,,,,,,,,,253.39957420000428,253.40695050000068,253.40695050000068,253.6130267000044,253.92511599999852,1,1,0.5094644999990123,None,253.92604640000354,253.93227090000437,253.93227090000437,254.14725570000155,254.35874490000424,254.35181010000088,254.35187420000148,254.35874490000424,255.05721110000013,,,,,,,,,,,,,,,,,,,,,,,,,,,,,,,,,,,,,,,,,,,,,,,,,,,,,,,,,,,,,,,,001,motor,1,0,2024-08-01_10h10.10.457,ASRT_motor,2023.2.3,142.18198154969247,
,2,180,3,1,red,sequences/_practice_sequence_00.csv,,,,,,,,,,,0,0,0,0,0,5,5,44,,,,,,,,,,,,,,,,,,,,,255.06584690000454,,,,,,,,,,,,,255.05791619999945,255.06584690000454,255.06584690000454,255.26592199999868,255.65746090000175,1,1,0.5844369000042207,None,255.65845160000026,255.66942389999895,255.66942389999895,255.8696629000042,256.0793668999977,256.0729104999991,256.0729699000003,256.0793668999977,256.77399069999956,256.78309609999997,,,,,,,,,,,,,,,,,,,,,,,,,,,,,,,,,,,,,,,,,,,,,,,,,,,,,,,,,,,,,,,001,motor,1,0,2024-08-01_10h10.10.457,ASRT_motor,2023.2.3,142.18198154969247,
,2,180,3,1,red,sequences/_practice_sequence_00.csv,,,,,,,,,,,0,0,0,0,0,6,6,25,,,,,,,,,,,,,,,,,,,,,256.78309609999997,,,,,,,,,,,,,256.774788900002,256.78309609999997,256.78309609999997,256.9878192000033,257.2682438000047,1,1,0.47802300000330433,None,257.2692293,257.2756786000027,257.2756786000027,257.4808587000007,257.68862130000343,257.68350009999995,257.6835418000046,257.68862130000343,258.3841474000001,258.3912169000032,,,,,,,,,,,,,,,,,,,,,,,,,,,,,,,,,,,,,,,,,,,,,,,,,,,,,,,,,,,,,,,001,motor,1,0,2024-08-01_10h10.10.457,ASRT_motor,2023.2.3,142.18198154969247,
,1,90,2,2,red,sequences/_practice_sequence_00.csv,,,,,,,,,,,0,0,0,0,0,7,7,36,,,,,,,,,,,,,,,,,,,,,258.3912169000032,,,,,,,,,,,,,258.3847964000015,258.3912169000032,258.3912169000032,258.59196410000004,259.10023640000145,2,1,0.7075332000022172,None,259.1004926000023,259.10615929999767,259.10615929999767,259.3135884000003,259.52312099999835,259.5174279999992,259.51748780000344,259.52312099999835,260.21775360000174,,,,,,,,,,,,,,,,,,,,,,,,,,,,,,,,,,,,,,,,,,,,,,,,,,,,,,,,,,,,,,,,001,motor,1,0,2024-08-01_10h10.10.457,ASRT_motor,2023.2.3,142.18198154969247,
,0,0,1,3,red,sequences/_practice_sequence_00.csv,,,,,,,,,,,0,0,0,0,0,8,8,60,,,,,,,,,,,,,,,,,,,,,260.22719810000126,,,,,,,,,,,,,260.2189701000025,260.22719810000126,260.22719810000126,260.4329604000013,260.639170800001,4,0,0.4046040999965044,None,260.64014999999927,260.6513477999979,260.6513477999979,260.8518277000039,261.05685890000314,261.05113320000237,261.05125670000416,261.05685890000314,261.7522411000027,,,,,,,,,,,,,,,,,,,,,,,,,,,,,,,,,,,,,,,,,,,,,,,,,,,,,,,,,,,,,,,,001,motor,1,0,2024-08-01_10h10.10.457,ASRT_motor,2023.2.3,142.18198154969247,
,3,270,0,4,red,sequences/_practice_sequence_00.csv,,,,,,,,,,,0,0,0,0,0,9,9,32,,,,,,,,,,,,,,,,,,,,,261.7591945000022,,,,,,,,,,,,,261.7528114000015,261.7591945000022,261.7591945000022,261.9598105999976,262.55569719999767,4,1,0.7905799000000115,None,262.55702539999766,262.5719315000024,262.5719315000024,262.77173700000276,262.9803494000007,262.97486930000014,262.9749144000016,262.9803494000007,263.6750419000018,,,,,,,,,,,,,,,,,,,,,,,,,,,,,,,,,,,,,,,,,,,,,,,,,,,,,,,,,,,,,,,,001,motor,1,0,2024-08-01_10h10.10.457,ASRT_motor,2023.2.3,142.18198154969247,
,2,180,3,1,red,sequences/_practice_sequence_00.csv,,,,,,,,,,,0,0,0,0,0,10,10,1,,,,,,,,,,,,,,,,,,,,,263.6818631999995,,,,,,,,,,,,,263.6755428000033,263.6818631999995,263.6818631999995,263.8831152999992,264.34535280000273,1,1,0.6547343999991426,None,264.3460441999996,264.3530064000006,264.3530064000006,264.5578123000014,264.7647264999978,264.7590003000005,264.7590357000008,264.7647264999978,265.4595244000011,,,,,,,,,,,,,,,,,,,,,,,,,,,,,,,,,,,,,,,,,,,,,,,,,,,,,,,,,,,,,,,,001,motor,1,0,2024-08-01_10h10.10.457,ASRT_motor,2023.2.3,142.18198154969247,
,0,0,1,3,red,sequences/_practice_sequence_00.csv,,,,,,,,,,,0,0,0,0,0,11,11,39,,,,,,,,,,,,,,,,,,,,,265.4669189999986,,,,,,,,,,,,,265.4604546999981,265.4669189999986,265.4669189999986,265.66787620000105,266.40710820000095,3,1,0.9375737000009394,None,266.4077152000027,266.41396080000413,266.41396080000413,266.62406329999794,266.82760170000256,266.82135019999987,266.82138690000284,266.82760170000256,267.52163850000215,,,,,,,,,,,,,,,,,,,,,,,,,,,,,,,,,,,,,,,,,,,,,,,,,,,,,,,,,,,,,,,,001,motor,1,0,2024-08-01_10h10.10.457,ASRT_motor,2023.2.3,142.18198154969247,
,1,90,2,2,red,sequences/_practice_sequence_00.csv,,,,,,,,,,,0,0,0,0,0,12,12,78,,,,,,,,,,,,,,,,,,,,,267.52868709999893,,,,,,,,,,,,,267.52219300000434,267.52868709999893,267.52868709999893,267.7306174000041,268.1083340999976,2,1,0.5770004999940284,None,268.1089232000013,268.11467509999784,268.11467509999784,268.3205309000041,268.52893570000015,268.5227434999979,268.5227861000021,268.52893570000015,269.22381440000026,,,,,,,,,,,,,,,,,,,,,,,,,,,,,,,,,,,,,,,,,,,,,,,,,,,,,,,,,,,,,,,,001,motor,1,0,2024-08-01_10h10.10.457,ASRT_motor,2023.2.3,142.18198154969247,
,1,90,2,2,red,sequences/_practice_sequence_00.csv,,,,,,,,,,,0,0,0,0,0,13,13,45,,,,,,,,,,,,,,,,,,,,,269.23234700000467,,,,,,,,,,,,,269.2246299000035,269.23234700000467,269.23234700000467,269.43198459999985,269.74048539999785,2,1,0.5047563999978593,None,269.74118420000013,269.74744790000113,269.74744790000113,269.9524031000037,270.16087790000165,270.1551169000013,270.15515949999826,270.16087790000165,270.8553461000047,,,,,,,,,,,,,,,,,,,,,,,,,,,,,,,,,,,,,,,,,,,,,,,,,,,,,,,,,,,,,,,,001,motor,1,0,2024-08-01_10h10.10.457,ASRT_motor,2023.2.3,142.18198154969247,
,0,0,1,3,red,sequences/_practice_sequence_00.csv,,,,,,,,,,,0,0,0,0,0,14,14,74,,,,,,,,,,,,,,,,,,,,,270.86208199999965,,,,,,,,,,,,,270.85591340000246,270.86208199999965,270.86208199999965,271.063910900004,271.5875759999981,3,1,0.7196537999989232,None,271.5883892999991,271.59601570000086,271.59601570000086,271.7997808,272.0079027000029,272.0021515999979,272.0021932000018,272.0079027000029,272.7028424000018,,,,,,,,,,,,,,,,,,,,,,,,,,,,,,,,,,,,,,,,,,,,,,,,,,,,,,,,,,,,,,,,001,motor,1,0,2024-08-01_10h10.10.457,ASRT_motor,2023.2.3,142.18198154969247,
,1,90,2,2,red,sequences/_practice_sequence_00.csv,,,,,,,,,,,0,0,0,0,0,15,15,52,,,,,,,,,,,,,,,,,,,,,272.7102210000012,,,,,,,,,,,,,272.7034877000042,272.7102210000012,272.7102210000012,272.9107970000041,273.4905652000016,2,1,0.7750139000054332,None,273.4914568000022,273.4993459000034,273.4993459000034,273.70250320000196,273.91130580000026,273.90565269999934,273.9057161000019,273.91130580000026,274.60629280000285,274.6116695000019,,,,,,,,,,,,,,,,,,,,,,,,,,,,,,,,,,,,,,,,,,,,,,,,,,,,,,,,,,,,,,,001,motor,1,0,2024-08-01_10h10.10.457,ASRT_motor,2023.2.3,142.18198154969247,
,0,0,1,3,red,sequences/_practice_sequence_00.csv,,,,,,,,,,,0,0,0,0,0,16,16,79,,,,,,,,,,,,,,,,,,,,,274.6116695000019,,,,,,,,,,,,,274.6069346000004,274.6116695000019,274.6116695000019,274.81338450000476,275.2341415999981,3,1,0.6189788999981829,None,275.2349189000015,275.2412645000004,275.2412645000004,275.44489440000325,275.65355519999866,275.6481086999993,275.6482127999989,275.65355519999866,276.34889210000256,,,,,,,,,,,,,,,,,,,,,,,,,,,,,,,,,,,,,,,,,,,,,,,,,,,,,,,,,,,,,,,,001,motor,1,0,2024-08-01_10h10.10.457,ASRT_motor,2023.2.3,142.18198154969247,
,3,270,0,4,red,sequences/_practice_sequence_00.csv,,,,,,,,,,,0,0,0,0,0,17,17,7,,,,,,,,,,,,,,,,,,,,,276.3581819000028,,,,,,,,,,,,,276.34972579999885,276.3581819000028,276.3581819000028,276.5628302000041,277.17064350000146,4,1,0.8097276000044076,None,277.1713200000013,277.1764306000041,277.1764306000041,277.38636029999907,277.59053290000156,277.5875162000011,277.5875420000011,277.59053290000156,278.2872314999986,278.2938890000005,,,,,,,,,,,,,,,,,,,,,,,,,,,,,,,,,,,,,,,,,,,,,,,,,,,,,,,,,,,,,,,001,motor,1,0,2024-08-01_10h10.10.457,ASRT_motor,2023.2.3,142.18198154969247,
,3,270,0,4,red,sequences/_practice_sequence_00.csv,,,,,,,,,,,0,0,0,0,0,18,18,12,,,,,,,,,,,,,,,,,,,,,278.2938890000005,,,,,,,,,,,,,278.2880434000035,278.2938890000005,278.2938890000005,278.49440049999976,279.0870708000002,2,0,0.7865037000010489,None,279.08821680000256,279.09649470000295,279.09649470000295,279.299488800003,279.5076468000043,279.50219610000204,279.50223769999866,279.5076468000043,280.20244249999814,,,,,,,,,,,,,,,,,,,,,,,,,,,,,,,,,,,,,,,,,,,,,,,,,,,,,,,,,,,,,,,,001,motor,1,0,2024-08-01_10h10.10.457,ASRT_motor,2023.2.3,142.18198154969247,
,0,0,1,3,red,sequences/_practice_sequence_00.csv,,,,,,,,,,,0,0,0,0,0,19,19,73,,,,,,,,,,,,,,,,,,,,,280.21050919999834,,,,,,,,,,,,,280.2031562999982,280.21050919999834,280.21050919999834,280.4107518000019,281.0683449999997,3,1,0.854038400000718,None,281.06928770000377,281.07908170000155,281.07908170000155,281.27872980000393,281.4870502999984,281.48174850000214,281.4818396000046,281.4870502999984,282.18204640000477,,,,,,,,,,,,,,,,,,,,,,,,,,,,,,,,,,,,,,,,,,,,,,,,,,,,,,,,,,,,,,,,001,motor,1,0,2024-08-01_10h10.10.457,ASRT_motor,2023.2.3,142.18198154969247,
,1,90,2,2,red,sequences/_practice_sequence_00.csv,,,,,,,,,,,0,0,0,0,0,20,20,83,,,,,,,,,,,,,,,,,,,,,282.1883224999983,,,,,,,,,,,,,282.182925000001,282.1883224999983,282.1883224999983,282.3899902999983,282.7528807999988,2,1,0.5615392000036081,None,282.75334609999845,282.75801930000307,282.75801930000307,282.96624249999877,283.1745152000003,283.16839460000483,283.1684329999989,283.1745152000003,283.8690004000018,283.87552790000336,,,,,,,,,,,,,,,,,,,,,,,,,,,,,,,,,,,,,,,,,,,,,,,,,,,,,,,,,,,,,,,001,motor,1,0,2024-08-01_10h10.10.457,ASRT_motor,2023.2.3,142.18198154969247,
,0,0,1,3,red,sequences/_practice_sequence_00.csv,,,,,,,,,,,0,0,0,0,0,21,21,53,,,,,,,,,,,,,,,,,,,,,283.87552790000336,,,,,,,,,,,,,283.8692923999988,283.87552790000336,283.87552790000336,284.0773601000037,284.6637441999992,3,1,0.7807063000000198,None,284.66445119999844,284.66998369999783,284.66998369999783,284.8756263000032,285.0855120999986,285.07983180000156,285.0799197000015,285.0855120999986,285.77968330000294,285.7871195999978,,,,,,,,,,,,,,,,,,,,,,,,,,,,,,,,,,,,,,,,,,,,,,,,,,,,,,,,,,,,,,,001,motor,1,0,2024-08-01_10h10.10.457,ASRT_motor,2023.2.3,142.18198154969247,
,3,270,0,4,red,sequences/_practice_sequence_00.csv,,,,,,,,,,,0,0,0,0,0,22,22,50,,,,,,,,,,,,,,,,,,,,,285.7871195999978,,,,,,,,,,,,,285.7802671000027,285.7871195999978,285.7871195999978,285.98711610000464,286.47669560000213,4,1,0.6809801999988849,None,286.47737079999933,286.48494490000303,286.48494490000303,286.6883749000044,286.896631100004,286.8906227999978,286.89066150000144,286.896631100004,287.59129750000284,,,,,,,,,,,,,,,,,,,,,,,,,,,,,,,,,,,,,,,,,,,,,,,,,,,,,,,,,,,,,,,,001,motor,1,0,2024-08-01_10h10.10.457,ASRT_motor,2023.2.3,142.18198154969247,
,1,90,2,2,red,sequences/_practice_sequence_00.csv,,,,,,,,,,,0,0,0,0,0,23,23,77,,,,,,,,,,,,,,,,,,,,,287.59753369999817,,,,,,,,,,,,,287.591831800004,287.59753369999817,287.59753369999817,287.7994919999983,288.59182390000205,None,0,,,288.59239759999764,288.6081312000024,288.6081312000024,288.80661820000387,289.0140659000026,289.0098885000043,289.0099298999994,289.0140659000026,289.70991830000276,289.7157339000041,,,,,,,,,,,,,,,,,,,,,,,,,,,,,,,,,,,,,,,,,,,,,,,,,,,,,,,,,,,,,,,001,motor,1,0,2024-08-01_10h10.10.457,ASRT_motor,2023.2.3,142.18198154969247,
,3,270,0,4,red,sequences/_practice_sequence_00.csv,,,,,,,,,,,0,0,0,0,0,24,24,26,,,,,,,,,,,,,,,,,,,,,289.7157339000041,,,,,,,,,,,,,289.7105231000023,289.7157339000041,289.7157339000041,289.91768530000263,290.27444520000427,4,1,0.5548122000036528,None,290.27530169999955,290.28578180000477,290.28578180000477,290.4867579999991,290.6976064999981,290.6921699000013,290.6922218000036,290.6976064999981,291.3918075000038,291.402331199999,,,,,,,,,,,,,,,,,,,,,,,,,,,,,,,,,,,,,,,,,,,,,,,,,,,,,,,,,,,,,,,001,motor,1,0,2024-08-01_10h10.10.457,ASRT_motor,2023.2.3,142.18198154969247,
,3,270,0,4,red,sequences/_practice_sequence_00.csv,,,,,,,,,,,0,0,0,0,0,25,25,11,,,,,,,,,,,,,,,,,,,,,291.402331199999,,,,,,,,,,,,,291.39328090000345,291.402331199999,291.402331199999,291.60490669999854,292.011946300001,4,1,0.600865899999917,None,292.0129401000013,292.02294390000316,292.02294390000316,292.2233699999997,292.4316670000044,292.4258641999986,292.4259149999998,292.4316670000044,293.12592750000476,293.13206609999907,,,,,,,,,,,,,,,,,,,,,,,,,,,,,,,,,,,,,,,,,,,,,,,,,,,,,,,,,,,,,,,001,motor,1,0,2024-08-01_10h10.10.457,ASRT_motor,2023.2.3,142.18198154969247,
,3,270,0,4,red,sequences/_practice_sequence_00.csv,,,,,,,,,,,0,0,0,0,0,26,26,72,,,,,,,,,,,,,,,,,,,,,293.13206609999907,,,,,,,,,,,,,293.12633410000126,293.13206609999907,293.13206609999907,293.3339339000013,293.6145002999983,4,1,0.4775145999956294,None,293.6152063000045,293.62333870000293,293.62333870000293,293.8358999999982,294.0457815000045,294.04003920000105,294.0400787000035,294.0457815000045,294.74440690000483,,,,,,,,,,,,,,,,,,,,,,,,,,,,,,,,,,,,,,,,,,,,,,,,,,,,,,,,,,,,,,,,001,motor,1,0,2024-08-01_10h10.10.457,ASRT_motor,2023.2.3,142.18198154969247,
,1,90,2,2,red,sequences/_practice_sequence_00.csv,,,,,,,,,,,0,0,0,0,0,27,27,35,,,,,,,,,,,,,,,,,,,,,294.7522241999977,,,,,,,,,,,,,294.745107200004,294.7522241999977,294.7522241999977,294.95183499999985,295.3875765999983,2,1,0.6312644999998156,None,295.38879019999877,295.39503179999883,295.39503179999883,295.59768520000216,295.8069029000035,295.80094290000125,295.8009884999992,295.8069029000035,296.5022142000016,296.5091262999995,,,,,,,,,,,,,,,,,,,,,,,,,,,,,,,,,,,,,,,,,,,,,,,,,,,,,,,,,,,,,,,001,motor,1,0,2024-08-01_10h10.10.457,ASRT_motor,2023.2.3,142.18198154969247,
,3,270,0,4,red,sequences/_practice_sequence_00.csv,,,,,,,,,,,0,0,0,0,0,28,28,16,,,,,,,,,,,,,,,,,,,,,296.5091262999995,,,,,,,,,,,,,296.5030726999976,296.5091262999995,296.5091262999995,296.708864500004,297.09614919999876,4,1,0.5826660000020638,None,297.0970310999983,297.104336700002,297.104336700002,297.3061340999993,297.51672359999793,297.5098674000037,297.5099257000038,297.51672359999793,298.21051750000333,298.2184228000042,,,,,,,,,,,,,,,,,,,,,,,,,,,,,,,,,,,,,,,,,,,,,,,,,,,,,,,,,,,,,,,001,motor,1,0,2024-08-01_10h10.10.457,ASRT_motor,2023.2.3,142.18198154969247,
,1,90,2,2,red,sequences/_practice_sequence_00.csv,,,,,,,,,,,0,0,0,0,0,29,29,15,,,,,,,,,,,,,,,,,,,,,298.2184228000042,,,,,,,,,,,,,298.2111625000034,298.2184228000042,298.2184228000042,298.4243174000003,298.7886265999987,2,1,0.5651215000034426,None,298.78932680000435,298.8009009000016,298.8009009000016,299.0012104999987,299.208904799998,299.2031336,299.2031825000013,299.208904799998,299.9034000000029,,,,,,,,,,,,,,,,,,,,,,,,,,,,,,,,,,,,,,,,,,,,,,,,,,,,,,,,,,,,,,,,001,motor,1,0,2024-08-01_10h10.10.457,ASRT_motor,2023.2.3,142.18198154969247,
,0,0,1,3,red,sequences/_practice_sequence_00.csv,,,,,,,,,,,0,0,0,0,0,30,30,5,,,,,,,,,,,,,,,,,,,,,299.90994599999976,,,,,,,,,,,,,299.9040924000001,299.90994599999976,299.90994599999976,300.1118478999997,300.4689333999995,3,1,0.5510404000015114,None,300.4697180000003,300.4769501999981,300.4769501999981,300.68100190000405,300.8893948000041,300.8832231999986,300.8832614999992,300.8893948000041,301.5838401000001,,,,,,,,,,,,,,,,,,,,,,,,,,,,,,,,,,,,,,,,,,,,,,,,,,,,,,,,,,,,,,,,001,motor,1,0,2024-08-01_10h10.10.457,ASRT_motor,2023.2.3,142.18198154969247,
,2,180,3,1,red,sequences/_practice_sequence_00.csv,,,,,,,,,,,0,0,0,0,0,31,31,48,,,,,,,,,,,,,,,,,,,,,301.59458879999875,,,,,,,,,,,,,301.58502469999803,301.59458879999875,301.59458879999875,301.7993223000012,302.11602180000045,1,1,0.5143175999983214,None,302.11693950000335,302.1256981999977,302.1256981999977,302.3267227000033,302.5347897000029,302.5289752000026,302.5290135000032,302.5347897000029,303.22993770000176,,,,,,,,,,,,,,,,,,,,,,,,,,,,,,,,,,,,,,,,,,,,,,,,,,,,,,,,,,,,,,,,001,motor,1,0,2024-08-01_10h10.10.457,ASRT_motor,2023.2.3,142.18198154969247,
,0,0,1,3,red,sequences/_practice_sequence_00.csv,,,,,,,,,,,0,0,0,0,0,32,32,62,,,,,,,,,,,,,,,,,,,,,303.23655339999823,,,,,,,,,,,,,303.2308195000005,303.23655339999823,303.23655339999823,303.43799820000277,303.7469495000041,3,1,0.5071129000061774,None,303.74721310000314,303.7504504000026,303.7504504000026,303.9587432999979,304.16704089999985,304.1612970999995,304.16134140000213,304.16704089999985,304.86146839999856,,,,,,,,,,,,,,,,,,,,,,,,,,,,,,,,,,,,,,,,,,,,,,,,,,,,,,,,,,,,,,,,001,motor,1,0,2024-08-01_10h10.10.457,ASRT_motor,2023.2.3,142.18198154969247,
,0,0,1,3,red,sequences/_practice_sequence_00.csv,,,,,,,,,,,0,0,0,0,0,33,33,6,,,,,,,,,,,,,,,,,,,,,304.8680957000033,,,,,,,,,,,,,304.86200040000404,304.8680957000033,304.8680957000033,305.0705663999979,305.3776341999983,3,1,0.5028902999983984,None,305.3783175999997,305.3856319999977,305.3856319999977,305.59040839999943,305.79869789999793,305.79315700000006,305.7931924000004,305.79869789999793,306.4940228999985,,,,,,,,,,,,,,,,,,,,,,,,,,,,,,,,,,,,,,,,,,,,,,,,,,,,,,,,,,,,,,,,001,motor,1,0,2024-08-01_10h10.10.457,ASRT_motor,2023.2.3,142.18198154969247,
,1,90,2,2,red,sequences/_practice_sequence_00.csv,,,,,,,,,,,0,0,0,0,0,34,34,66,,,,,,,,,,,,,,,,,,,,,306.5024512000018,,,,,,,,,,,,,306.49483560000226,306.5024512000018,306.5024512000018,306.7019617000042,307.12197549999837,2,1,0.6107935000036377,None,307.12300289999985,307.1288010999997,307.1288010999997,307.33356790000107,307.5416220000043,307.5365740999987,307.53662469999836,307.5416220000043,308.2378232999981,308.24399280000216,,,,,,,,,,,,,,,,,,,,,,,,,,,,,,,,,,,,,,,,,,,,,,,,,,,,,,,,,,,,,,,001,motor,1,0,2024-08-01_10h10.10.457,ASRT_motor,2023.2.3,142.18198154969247,
,3,270,0,4,red,sequences/_practice_sequence_00.csv,,,,,,,,,,,0,0,0,0,0,35,35,64,,,,,,,,,,,,,,,,,,,,,308.24399280000216,,,,,,,,,,,,,308.23846090000006,308.24399280000216,308.24399280000216,308.4456366000013,308.8387234000038,4,1,0.5887417999983882,None,308.83944840000186,308.8498192000043,308.8498192000043,309.0487112000046,309.25739440000325,309.2516423999987,309.2516972000012,309.25739440000325,309.952472500001,309.95848470000055,,,,,,,,,,,,,,,,,,,,,,,,,,,,,,,,,,,,,,,,,,,,,,,,,,,,,,,,,,,,,,,001,motor,1,0,2024-08-01_10h10.10.457,ASRT_motor,2023.2.3,142.18198154969247,
,2,180,3,1,red,sequences/_practice_sequence_00.csv,,,,,,,,,,,0,0,0,0,0,36,36,70,,,,,,,,,,,,,,,,,,,,,309.95848470000055,,,,,,,,,,,,,309.95308189999923,309.95848470000055,309.95848470000055,310.16052430000127,310.5789833000017,1,1,0.6135426000037114,None,310.5796115999983,310.5866993000018,310.5866993000018,310.79211690000375,310.9999405999988,310.9930860000022,310.9931044000041,310.9999405999988,311.6953613000005,,,,,,,,,,,,,,,,,,,,,,,,,,,,,,,,,,,,,,,,,,,,,,,,,,,,,,,,,,,,,,,,001,motor,1,0,2024-08-01_10h10.10.457,ASRT_motor,2023.2.3,142.18198154969247,
,2,180,3,1,red,sequences/_practice_sequence_00.csv,,,,,,,,,,,0,0,0,0,0,37,37,56,,,,,,,,,,,,,,,,,,,,,311.7022905999984,,,,,,,,,,,,,311.6960617000004,311.7022905999984,311.7022905999984,311.9033130000025,312.2754692000017,1,1,0.5649293000024045,None,312.27635900000314,312.2838015000016,312.2838015000016,312.4862609000047,312.6949636999998,312.6888045000014,312.68885080000473,312.6949636999998,313.3892790000027,,,,,,,,,,,,,,,,,,,,,,,,,,,,,,,,,,,,,,,,,,,,,,,,,,,,,,,,,,,,,,,,001,motor,1,0,2024-08-01_10h10.10.457,ASRT_motor,2023.2.3,142.18198154969247,
,1,90,2,2,red,sequences/_practice_sequence_00.csv,,,,,,,,,,,0,0,0,0,0,38,38,41,,,,,,,,,,,,,,,,,,,,,313.39588840000215,,,,,,,,,,,,,313.38995989999967,313.39588840000215,313.39588840000215,313.59750519999943,313.97550259999844,2,1,0.5768545999962953,None,313.9762660999986,313.9893865999984,313.9893865999984,314.18750810000347,314.396404500003,314.38896360000217,314.38898090000293,314.396404500003,315.0908724000037,,,,,,,,,,,,,,,,,,,,,,,,,,,,,,,,,,,,,,,,,,,,,,,,,,,,,,,,,,,,,,,,001,motor,1,0,2024-08-01_10h10.10.457,ASRT_motor,2023.2.3,142.18198154969247,
,1,90,2,2,red,sequences/_practice_sequence_00.csv,,,,,,,,,,,0,0,0,0,0,39,39,43,,,,,,,,,,,,,,,,,,,,,315.1030125000034,,,,,,,,,,,,,315.0925449999995,315.1030125000034,315.1030125000034,315.3054592000044,315.6895884999976,2,1,0.5802330000005895,None,315.69042009999976,315.69737010000244,315.69737010000244,315.90292410000256,316.11106440000003,316.10554820000107,316.1056208000009,316.11106440000003,316.8058796999976,,,,,,,,,,,,,,,,,,,,,,,,,,,,,,,,,,,,,,,,,,,,,,,,,,,,,,,,,,,,,,,,001,motor,1,0,2024-08-01_10h10.10.457,ASRT_motor,2023.2.3,142.18198154969247,
,0,0,1,3,red,sequences/_practice_sequence_00.csv,,,,,,,,,,,0,0,0,0,0,40,40,67,,,,,,,,,,,,,,,,,,,,,316.81487290000223,,,,,,,,,,,,,316.8068654000017,316.81487290000223,316.81487290000223,317.0210933999988,317.3502848999997,3,1,0.5271644999957061,None,317.3513543000008,317.35746700000163,317.35746700000163,317.56289220000326,317.77238030000444,317.7665541000024,317.7666051999986,317.77238030000444,318.4666722000038,318.4739449999979,,,,,,,,,,,,,,,,,,,,,,,,,,,,,,,,,,,,,,,,,,,,,,,,,,,,,,,,,,,,,,,001,motor,1,0,2024-08-01_10h10.10.457,ASRT_motor,2023.2.3,142.18198154969247,
,3,270,0,4,red,sequences/_practice_sequence_00.csv,,,,,,,,,,,0,0,0,0,0,41,41,27,,,,,,,,,,,,,,,,,,,,,318.4739449999979,,,,,,,,,,,,,318.46732509999856,318.4739449999979,318.4739449999979,318.6746415000016,319.0424653000009,4,1,0.5648422000012943,None,319.0430694000024,319.0484044000041,319.0484044000041,319.25711130000127,319.46527010000136,319.4597158000033,319.4597816000023,319.46527010000136,320.1605116999999,320.1665742999976,,,,,,,,,,,,,,,,,,,,,,,,,,,,,,,,,,,,,,,,,,,,,,,,,,,,,,,,,,,,,,,001,motor,1,0,2024-08-01_10h10.10.457,ASRT_motor,2023.2.3,142.18198154969247,
,1,90,2,2,red,sequences/_practice_sequence_00.csv,,,,,,,,,,,0,0,0,0,0,42,42,80,,,,,,,,,,,,,,,,,,,,,320.1665742999976,,,,,,,,,,,,,320.16099309999845,320.1665742999976,320.1665742999976,320.3679974999977,320.71629380000377,2,1,0.5424083000034443,None,320.71723909999855,320.7224145,320.7224145,320.93044029999874,321.1384548999995,321.13194730000396,321.1319664000039,321.1384548999995,321.8337399000011,,,,,,,,,,,,,,,,,,,,,,,,,,,,,,,,,,,,,,,,,,,,,,,,,,,,,,,,,,,,,,,,001,motor,1,0,2024-08-01_10h10.10.457,ASRT_motor,2023.2.3,142.18198154969247,
,0,0,1,3,red,sequences/_practice_sequence_00.csv,,,,,,,,,,,0,0,0,0,0,43,43,63,,,,,,,,,,,,,,,,,,,,,321.8399789000032,,,,,,,,,,,,,321.8343141000005,321.8399789000032,321.8399789000032,322.041498999999,322.4277096000005,3,1,0.5834902999995393,None,322.428711200002,322.4384896999982,322.4384896999982,322.6384541000007,322.84684930000367,322.84172260000196,322.84177369999816,322.84684930000367,323.5419178000011,,,,,,,,,,,,,,,,,,,,,,,,,,,,,,,,,,,,,,,,,,,,,,,,,,,,,,,,,,,,,,,,001,motor,1,0,2024-08-01_10h10.10.457,ASRT_motor,2023.2.3,142.18198154969247,
,0,0,1,3,red,sequences/_practice_sequence_00.csv,,,,,,,,,,,0,0,0,0,0,44,44,22,,,,,,,,,,,,,,,,,,,,,323.5482516999982,,,,,,,,,,,,,323.5425393999976,323.5482516999982,323.5482516999982,323.7500094999996,324.02884500000073,3,1,0.47890799999731826,None,324.02912690000085,324.0340389999983,324.0340389999983,324.24255110000377,324.45125949999783,324.445619099999,324.4456877000048,324.45125949999783,325.14588209999783,,,,,,,,,,,,,,,,,,,,,,,,,,,,,,,,,,,,,,,,,,,,,,,,,,,,,,,,,,,,,,,,001,motor,1,0,2024-08-01_10h10.10.457,ASRT_motor,2023.2.3,142.18198154969247,
,2,180,3,1,red,sequences/_practice_sequence_00.csv,,,,,,,,,,,0,0,0,0,0,45,45,69,,,,,,,,,,,,,,,,,,,,,325.15279120000196,,,,,,,,,,,,,325.1464511000013,325.15279120000196,325.15279120000196,325.35402189999877,325.751476999998,1,1,0.5908662000001641,None,325.7519229000027,325.7570863000001,325.7570863000001,325.9649117000008,326.1752067999987,326.1691034000032,326.16915940000035,326.1752067999987,326.8684293000042,326.87442349999765,,,,,,,,,,,,,,,,,,,,,,,,,,,,,,,,,,,,,,,,,,,,,,,,,,,,,,,,,,,,,,,001,motor,1,0,2024-08-01_10h10.10.457,ASRT_motor,2023.2.3,142.18198154969247,
,3,270,0,4,red,sequences/_practice_sequence_00.csv,,,,,,,,,,,0,0,0,0,0,46,46,84,,,,,,,,,,,,,,,,,,,,,326.87442349999765,,,,,,,,,,,,,326.8688899999979,326.87442349999765,326.87442349999765,327.0760960999978,327.40517840000393,4,1,0.5261451999976998,None,327.40585960000317,327.41314299999794,327.41314299999794,327.61794080000254,327.8259651000044,327.82042889999866,327.82046660000196,327.8259651000044,328.52124999999796,,,,,,,,,,,,,,,,,,,,,,,,,,,,,,,,,,,,,,,,,,,,,,,,,,,,,,,,,,,,,,,,001,motor,1,0,2024-08-01_10h10.10.457,ASRT_motor,2023.2.3,142.18198154969247,
,0,0,1,3,red,sequences/_practice_sequence_00.csv,,,,,,,,,,,0,0,0,0,0,47,47,54,,,,,,,,,,,,,,,,,,,,,328.53084110000054,,,,,,,,,,,,,328.522063299999,328.53084110000054,328.53084110000054,328.7358959999983,329.01588630000333,3,1,0.48024289999739267,None,329.0166834999982,329.0239204000027,329.0239204000027,329.22866760000034,329.43679549999797,329.4321486999979,329.4321928999998,329.43679549999797,330.1335207000011,330.14410370000405,,,,,,,,,,,,,,,,,,,,,,,,,,,,,,,,,,,,,,,,,,,,,,,,,,,,,,,,,,,,,,,001,motor,1,0,2024-08-01_10h10.10.457,ASRT_motor,2023.2.3,142.18198154969247,
,0,0,1,3,red,sequences/_practice_sequence_00.csv,,,,,,,,,,,0,0,0,0,0,48,48,9,,,,,,,,,,,,,,,,,,,,,330.14410370000405,,,,,,,,,,,,,330.13458790000004,330.14410370000405,330.14410370000405,330.3469513000018,330.73938830000407,3,1,0.5918321999997715,None,330.740077399998,330.7466501000017,330.7466501000017,330.9512474000003,331.159899600003,331.1542946000045,331.15435330000037,331.159899600003,331.85497430000396,331.8611508000031,,,,,,,,,,,,,,,,,,,,,,,,,,,,,,,,,,,,,,,,,,,,,,,,,,,,,,,,,,,,,,,001,motor,1,0,2024-08-01_10h10.10.457,ASRT_motor,2023.2.3,142.18198154969247,
,2,180,3,1,red,sequences/_practice_sequence_00.csv,,,,,,,,,,,0,0,0,0,0,49,49,81,,,,,,,,,,,,,,,,,,,,,331.8611508000031,,,,,,,,,,,,,331.85573190000287,331.8611508000031,331.8611508000031,332.06187769999815,332.446969800003,1,1,0.5820087999964016,None,332.4476450000002,332.4533018000002,332.4533018000002,332.65963100000226,332.8680059000035,332.86185079999996,332.8618929000004,332.8680059000035,333.5623601000043,,,,,,,,,,,,,,,,,,,,,,,,,,,,,,,,,,,,,,,,,,,,,,,,,,,,,,,,,,,,,,,,001,motor,1,0,2024-08-01_10h10.10.457,ASRT_motor,2023.2.3,142.18198154969247,
,0,0,1,3,red,sequences/_practice_sequence_00.csv,,,,,,,,,,,0,0,0,0,0,50,50,59,,,,,,,,,,,,,,,,,,,,,333.5709160999977,,,,,,,,,,,,,333.563046700001,333.5709160999977,333.5709160999977,333.7707717000012,334.0805421999976,3,1,0.5014414999968722,None,334.0820304000008,334.0938108000046,334.0938108000046,334.290960600003,334.50115570000344,334.49656099999993,334.4966033000019,334.50115570000344,335.19680320000043,335.2057836000022,,,,,,,,,,,,,,,,,,,,,,,,,,,,,,,,,,,,,,,,,,,,,,,,,,,,,,,,,,,,,,,001,motor,1,0,2024-08-01_10h10.10.457,ASRT_motor,2023.2.3,142.18198154969247,
,0,0,1,3,red,sequences/_practice_sequence_00.csv,,,,,,,,,,,0,0,0,0,0,51,51,23,,,,,,,,,,,,,,,,,,,,,335.2057836000022,,,,,,,,,,,,,335.1977932000009,335.2057836000022,335.2057836000022,335.40914619999967,335.7530981000018,3,1,0.5418105999997351,None,335.75371319999977,335.7608376999997,335.7608376999997,335.9643684000039,336.17321159999847,336.16761950000364,336.16765450000094,336.17321159999847,336.86807489999774,,,,,,,,,,,,,,,,,,,,,,,,,,,,,,,,,,,,,,,,,,,,,,,,,,,,,,,,,,,,,,,,001,motor,1,0,2024-08-01_10h10.10.457,ASRT_motor,2023.2.3,142.18198154969247,
,0,0,1,3,red,sequences/_practice_sequence_00.csv,,,,,,,,,,,0,0,0,0,0,52,52,61,,,,,,,,,,,,,,,,,,,,,336.8743824999983,,,,,,,,,,,,,336.8685373000044,336.8743824999983,336.8743824999983,337.0753586999999,337.32208230000106,3,1,0.4439375000001746,None,337.3229699000003,337.33244299999933,337.33244299999933,337.5341460999989,337.7431702000031,337.7365084999983,337.7365834000011,337.7431702000031,338.4376009999978,,,,,,,,,,,,,,,,,,,,,,,,,,,,,,,,,,,,,,,,,,,,,,,,,,,,,,,,,,,,,,,,001,motor,1,0,2024-08-01_10h10.10.457,ASRT_motor,2023.2.3,142.18198154969247,
,2,180,3,1,red,sequences/_practice_sequence_00.csv,,,,,,,,,,,0,0,0,0,0,53,53,38,,,,,,,,,,,,,,,,,,,,,338.44367200000124,,,,,,,,,,,,,338.4381605000017,338.44367200000124,338.44367200000124,338.6454023000042,339.02284370000416,1,1,0.5726186999963829,None,339.02360690000205,339.03526290000445,339.03526290000445,339.23549790000106,339.4438665999987,339.43883130000177,339.43887689999974,339.4438665999987,340.1394208999991,340.1454666999998,,,,,,,,,,,,,,,,,,,,,,,,,,,,,,,,,,,,,,,,,,,,,,,,,,,,,,,,,,,,,,,001,motor,1,0,2024-08-01_10h10.10.457,ASRT_motor,2023.2.3,142.18198154969247,
,3,270,0,4,red,sequences/_practice_sequence_00.csv,,,,,,,,,,,0,0,0,0,0,54,54,47,,,,,,,,,,,,,,,,,,,,,340.1454666999998,,,,,,,,,,,,,340.1400192000001,340.1454666999998,340.1454666999998,340.34732330000406,340.6554627000005,4,1,0.5066948000021512,None,340.65611609999905,340.662244500003,340.662244500003,340.8677536000032,341.07556679999834,341.07011720000446,341.0701571000027,341.07556679999834,341.77078240000264,,,,,,,,,,,,,,,,,,,,,,,,,,,,,,,,,,,,,,,,,,,,,,,,,,,,,,,,,,,,,,,,001,motor,1,0,2024-08-01_10h10.10.457,ASRT_motor,2023.2.3,142.18198154969247,
,2,180,3,1,red,sequences/_practice_sequence_00.csv,,,,,,,,,,,0,0,0,0,0,55,55,14,,,,,,,,,,,,,,,,,,,,,341.7796836999987,,,,,,,,,,,,,341.7715545000028,341.7796836999987,341.7796836999987,341.9860115000047,342.4474998000005,1,1,0.6602747999932035,None,342.44821980000415,342.45671859999857,342.45671859999857,342.6587787000026,342.86783980000473,342.86289810000017,342.8629370999988,342.86783980000473,343.5626409000033,343.56850269999995,,,,,,,,,,,,,,,,,,,,,,,,,,,,,,,,,,,,,,,,,,,,,,,,,,,,,,,,,,,,,,,001,motor,1,0,2024-08-01_10h10.10.457,ASRT_motor,2023.2.3,142.18198154969247,
,1,90,2,2,red,sequences/_practice_sequence_00.csv,,,,,,,,,,,0,0,0,0,0,56,56,4,,,,,,,,,,,,,,,,,,,,,343.56850269999995,,,,,,,,,,,,,343.5631424000021,343.56850269999995,343.56850269999995,343.7704678000009,344.17375529999845,2,1,0.5996862000029068,None,344.17457280000235,344.1839069999987,344.1839069999987,344.38132130000304,344.5899789000032,344.58653590000176,344.5865649000043,344.5899789000032,345.28550879999966,345.2917096000019,,,,,,,,,,,,,,,,,,,,,,,,,,,,,,,,,,,,,,,,,,,,,,,,,,,,,,,,,,,,,,,001,motor,1,0,2024-08-01_10h10.10.457,ASRT_motor,2023.2.3,142.18198154969247,
,2,180,3,1,red,sequences/_practice_sequence_00.csv,,,,,,,,,,,0,0,0,0,0,57,57,68,,,,,,,,,,,,,,,,,,,,,345.2917096000019,,,,,,,,,,,,,345.2863460000008,345.2917096000019,345.2917096000019,345.49250570000004,345.8902627999996,1,1,0.5914200999977766,None,345.89083820000087,345.89771309999924,345.89771309999924,346.10383179999917,346.3120168000023,346.30664300000353,346.30668010000227,346.3120168000023,347.0073438000036,347.0131238000031,,,,,,,,,,,,,,,,,,,,,,,,,,,,,,,,,,,,,,,,,,,,,,,,,,,,,,,,,,,,,,,001,motor,1,0,2024-08-01_10h10.10.457,ASRT_motor,2023.2.3,142.18198154969247,
,3,270,0,4,red,sequences/_practice_sequence_00.csv,,,,,,,,,,,0,0,0,0,0,58,58,42,,,,,,,,,,,,,,,,,,,,,347.0131238000031,,,,,,,,,,,,,347.00802020000265,347.0131238000031,347.0131238000031,347.2146003000016,347.50169099999766,4,1,0.4812180000008084,None,347.50224580000213,347.50813039999775,347.50813039999775,347.7148612000019,347.9231426999977,347.917357600003,347.9174159000031,347.9231426999977,348.61809010000434,348.62390700000105,,,,,,,,,,,,,,,,,,,,,,,,,,,,,,,,,,,,,,,,,,,,,,,,,,,,,,,,,,,,,,,001,motor,1,0,2024-08-01_10h10.10.457,ASRT_motor,2023.2.3,142.18198154969247,
,0,0,1,3,red,sequences/_practice_sequence_00.csv,,,,,,,,,,,0,0,0,0,0,59,59,10,,,,,,,,,,,,,,,,,,,,,348.62390700000105,,,,,,,,,,,,,348.6186605000039,348.62390700000105,348.62390700000105,348.8254842000024,349.09752680000383,3,1,0.4698623999938718,None,349.09793029999855,349.10378240000136,349.10378240000136,349.3123931000009,349.51980610000464,349.5141711000033,349.51421259999915,349.51980610000464,350.21434350000345,,,,,,,,,,,,,,,,,,,,,,,,,,,,,,,,,,,,,,,,,,,,,,,,,,,,,,,,,,,,,,,,001,motor,1,0,2024-08-01_10h10.10.457,ASRT_motor,2023.2.3,142.18198154969247,
,0,0,1,3,red,sequences/_practice_sequence_00.csv,,,,,,,,,,,0,0,0,0,0,60,60,65,,,,,,,,,,,,,,,,,,,,,350.2212111999979,,,,,,,,,,,,,350.21487640000123,350.2212111999979,350.2212111999979,350.4229321000021,350.739951800002,3,1,0.5143074000006891,None,350.7407953000002,350.7509213000012,350.7509213000012,350.9506735000032,351.1586322000003,351.1530184000003,351.15306019999844,351.1586322000003,351.85348940000404,,,,,,,,,,,,,,,,,,,,,,,,,,,,,,,,,,,,,,,,,,,,,,,,,,,,,,,,,,,,,,,,001,motor,1,0,2024-08-01_10h10.10.457,ASRT_motor,2023.2.3,142.18198154969247,
,3,270,0,4,red,sequences/_practice_sequence_00.csv,,,,,,,,,,,0,0,0,0,0,61,61,31,,,,,,,,,,,,,,,,,,,,,351.86041660000046,,,,,,,,,,,,,351.85428530000354,351.86041660000046,351.86041660000046,352.06157270000404,352.38363540000137,4,1,0.5156637999971281,None,352.3843823999996,352.3927251999994,352.3927251999994,352.59657770000194,352.80424750000384,352.79856020000443,352.798592500003,352.80424750000384,353.4995920000001,,,,,,,,,,,,,,,,,,,,,,,,,,,,,,,,,,,,,,,,,,,,,,,,,,,,,,,,,,,,,,,,001,motor,1,0,2024-08-01_10h10.10.457,ASRT_motor,2023.2.3,142.18198154969247,
,3,270,0,4,red,sequences/_practice_sequence_00.csv,,,,,,,,,,,0,0,0,0,0,62,62,55,,,,,,,,,,,,,,,,,,,,,353.5057214000044,,,,,,,,,,,,,353.50017720000324,353.5057214000044,353.5057214000044,353.70751120000205,354.0368552,4,1,0.5294094999990193,None,354.0374196999983,354.04204810000374,354.04204810000374,354.2490766999981,354.45764169999893,354.45159409999906,354.4516330000042,354.45764169999893,355.1527303000039,,,,,,,,,,,,,,,,,,,,,,,,,,,,,,,,,,,,,,,,,,,,,,,,,,,,,,,,,,,,,,,,001,motor,1,0,2024-08-01_10h10.10.457,ASRT_motor,2023.2.3,142.18198154969247,
,2,180,3,1,red,sequences/_practice_sequence_00.csv,,,,,,,,,,,0,0,0,0,0,63,63,28,,,,,,,,,,,,,,,,,,,,,355.1596442000009,,,,,,,,,,,,,355.1535564000005,355.1596442000009,355.1596442000009,355.3604350000023,355.82134390000283,1,1,0.6555471999963629,None,355.8222825999983,355.8295242000022,355.8295242000022,356.03375249999954,356.24321610000334,356.2367771999998,356.23683470000105,356.24321610000334,356.93783390000317,,,,,,,,,,,,,,,,,,,,,,,,,,,,,,,,,,,,,,,,,,,,,,,,,,,,,,,,,,,,,,,,001,motor,1,0,2024-08-01_10h10.10.457,ASRT_motor,2023.2.3,142.18198154969247,
,0,0,1,3,red,sequences/_practice_sequence_00.csv,,,,,,,,,,,0,0,0,0,0,64,64,18,,,,,,,,,,,,,,,,,,,,,356.947156000002,,,,,,,,,,,,,356.93897239999933,356.947156000002,356.947156000002,357.15239270000166,357.6359916000001,3,1,0.6840210000009392,None,357.6367038000026,357.64557870000135,357.64557870000135,357.84615560000384,358.0545385000005,358.04906499999925,358.04911469999934,358.0545385000005,358.7492209999982,,,,,,,,,,,,,,,,,,,,,,,,,,,,,,,,,,,,,,,,,,,,,,,,,,,,,,,,,,,,,,,,001,motor,1,0,2024-08-01_10h10.10.457,ASRT_motor,2023.2.3,142.18198154969247,
,2,180,3,1,red,sequences/_practice_sequence_00.csv,,,,,,,,,,,0,0,0,0,0,65,65,29,,,,,,,,,,,,,,,,,,,,,358.7559818000009,,,,,,,,,,,,,358.749839600001,358.7559818000009,358.7559818000009,358.95780589999777,359.2954591000016,1,1,0.5348911999972188,None,359.296577000001,359.30765110000357,359.30765110000357,359.5119132000036,359.7254965000029,359.71661080000194,359.7167011999991,359.7254965000029,360.42344610000146,,,,,,,,,,,,,,,,,,,,,,,,,,,,,,,,,,,,,,,,,,,,,,,,,,,,,,,,,,,,,,,,001,motor,1,0,2024-08-01_10h10.10.457,ASRT_motor,2023.2.3,142.18198154969247,
,2,180,3,1,red,sequences/_practice_sequence_00.csv,,,,,,,,,,,0,0,0,0,0,66,66,0,,,,,,,,,,,,,,,,,,,,,360.431479400002,,,,,,,,,,,,,360.4241159000012,360.431479400002,360.431479400002,360.6313100000043,360.9881891000041,1,1,0.5542990000030841,None,360.98871730000246,360.99494699999923,360.99494699999923,361.200073400003,361.4084606000033,361.4030488999997,361.40309230000275,361.4084606000033,362.1043548000016,,,,,,,,,,,,,,,,,,,,,,,,,,,,,,,,,,,,,,,,,,,,,,,,,,,,,,,,,,,,,,,,001,motor,1,0,2024-08-01_10h10.10.457,ASRT_motor,2023.2.3,142.18198154969247,
,2,180,3,1,red,sequences/_practice_sequence_00.csv,,,,,,,,,,,0,0,0,0,0,67,67,24,,,,,,,,,,,,,,,,,,,,,362.10937489999924,,,,,,,,,,,,,362.10527240000374,362.10937489999924,362.10937489999924,362.3116635000042,362.58367,1,1,0.46995479999895906,None,362.58398619999934,362.5889049000034,362.5889049000034,362.7974826999998,363.0064197000029,362.9999491999988,362.99996680000186,363.0064197000029,363.7005705999982,,,,,,,,,,,,,,,,,,,,,,,,,,,,,,,,,,,,,,,,,,,,,,,,,,,,,,,,,,,,,,,,001,motor,1,0,2024-08-01_10h10.10.457,ASRT_motor,2023.2.3,142.18198154969247,
,2,180,3,1,red,sequences/_practice_sequence_00.csv,,,,,,,,,,,0,0,0,0,0,68,68,17,,,,,,,,,,,,,,,,,,,,,363.7081634999995,,,,,,,,,,,,,363.7012021000046,363.7081634999995,363.7081634999995,363.90856619999977,364.2193277000042,1,1,0.5068724000011571,None,364.22019069999806,364.22916709999845,364.22916709999845,364.4310661999989,364.63771850000194,364.63206340000033,364.6321012999979,364.63771850000194,365.33278370000335,,,,,,,,,,,,,,,,,,,,,,,,,,,,,,,,,,,,,,,,,,,,,,,,,,,,,,,,,,,,,,,,001,motor,1,0,2024-08-01_10h10.10.457,ASRT_motor,2023.2.3,142.18198154969247,
,3,270,0,4,red,sequences/_practice_sequence_00.csv,,,,,,,,,,,0,0,0,0,0,69,69,3,,,,,,,,,,,,,,,,,,,,,365.33957270000246,,,,,,,,,,,,,365.33342000000266,365.33957270000246,365.33957270000246,365.5404168000023,365.8765218000044,4,1,0.5289832000053138,None,365.8770530000038,365.8828199999989,365.8828199999989,366.0889688000025,366.2972521000047,366.29138960000273,366.2914230000024,366.2972521000047,366.99217599999974,,,,,,,,,,,,,,,,,,,,,,,,,,,,,,,,,,,,,,,,,,,,,,,,,,,,,,,,,,,,,,,,001,motor,1,0,2024-08-01_10h10.10.457,ASRT_motor,2023.2.3,142.18198154969247,
,1,90,2,2,red,sequences/_practice_sequence_00.csv,,,,,,,,,,,0,0,0,0,0,70,70,33,,,,,,,,,,,,,,,,,,,,,366.999261500001,,,,,,,,,,,,,366.992714,366.999261500001,366.999261500001,367.20041940000374,367.6825167999996,2,1,0.680119199998444,None,367.6831091999993,367.68983290000324,367.68983290000324,367.89477310000075,368.1027843999982,368.0970424000043,368.0970809999999,368.1027843999982,368.79771460000484,,,,,,,,,,,,,,,,,,,,,,,,,,,,,,,,,,,,,,,,,,,,,,,,,,,,,,,,,,,,,,,,001,motor,1,0,2024-08-01_10h10.10.457,ASRT_motor,2023.2.3,142.18198154969247,
,1,90,2,2,red,sequences/_practice_sequence_00.csv,,,,,,,,,,,0,0,0,0,0,71,71,2,,,,,,,,,,,,,,,,,,,,,368.8042964999986,,,,,,,,,,,,,368.7981770000042,368.8042964999986,368.8042964999986,369.00581560000137,369.349175299998,2,1,0.5394930000038585,None,369.34992610000336,369.35725430000457,369.35725430000457,369.56138849999843,369.76975890000176,369.763343300001,369.7633791000044,369.76975890000176,370.4641757999998,,,,,,,,,,,,,,,,,,,,,,,,,,,,,,,,,,,,,,,,,,,,,,,,,,,,,,,,,,,,,,,,001,motor,1,0,2024-08-01_10h10.10.457,ASRT_motor,2023.2.3,142.18198154969247,
,1,90,2,2,red,sequences/_practice_sequence_00.csv,,,,,,,,,,,0,0,0,0,0,72,72,13,,,,,,,,,,,,,,,,,,,,,370.4709905999989,,,,,,,,,,,,,370.4647096000044,370.4709905999989,370.4709905999989,370.67260669999814,370.97257289999834,2,1,0.4940439999991213,None,370.97316200000205,370.97839340000064,370.97839340000064,371.1864368000024,371.3965214999989,371.3902181000012,371.39026430000376,371.3965214999989,372.0908542000034,372.09780740000133,,,,,,,,,,,,,,,,,,,,,,,,,,,,,,,,,,,,,,,,,,,,,,,,,,,,,,,,,,,,,,,001,motor,1,0,2024-08-01_10h10.10.457,ASRT_motor,2023.2.3,142.18198154969247,
,1,90,2,2,red,sequences/_practice_sequence_00.csv,,,,,,,,,,,0,0,0,0,0,73,73,46,,,,,,,,,,,,,,,,,,,,,372.09780740000133,,,,,,,,,,,,,372.09158970000135,372.09780740000133,372.09780740000133,372.2975542999993,372.5304741,2,1,0.42876399999659043,None,372.53119380000135,372.5369425000026,372.5369425000026,372.74189099999785,372.95007550000446,372.9445701000004,372.9446131000004,372.95007550000446,373.64564840000094,373.6522932000007,,,,,,,,,,,,,,,,,,,,,,,,,,,,,,,,,,,,,,,,,,,,,,,,,,,,,,,,,,,,,,,001,motor,1,0,2024-08-01_10h10.10.457,ASRT_motor,2023.2.3,142.18198154969247,
,0,0,1,3,red,sequences/_practice_sequence_00.csv,,,,,,,,,,,0,0,0,0,0,74,74,75,,,,,,,,,,,,,,,,,,,,,373.6522932000007,,,,,,,,,,,,,373.64625779999915,373.6522932000007,373.6522932000007,373.85289999999804,374.2035832000038,3,1,0.5469621000011102,None,374.2043659999981,374.21455640000204,374.21455640000204,374.41542800000025,374.6237051999997,374.6178616000034,374.61797320000187,374.6237051999997,375.31807420000405,,,,,,,,,,,,,,,,,,,,,,,,,,,,,,,,,,,,,,,,,,,,,,,,,,,,,,,,,,,,,,,,001,motor,1,0,2024-08-01_10h10.10.457,ASRT_motor,2023.2.3,142.18198154969247,
,2,180,3,1,red,sequences/_practice_sequence_00.csv,,,,,,,,,,,0,0,0,0,0,75,75,21,,,,,,,,,,,,,,,,,,,,,375.32474780000484,,,,,,,,,,,,,375.31856490000064,375.32474780000484,375.32474780000484,375.52641560000484,375.87769919999846,1,1,0.5466071999981068,None,375.87871520000044,375.88693310000235,375.88693310000235,376.08867830000236,376.2974073000005,376.2923626000047,376.29240949999803,376.2974073000005,376.9924811000019,376.998780599999,,,,,,,,,,,,,,,,,,,,,,,,,,,,,,,,,,,,,,,,,,,,,,,,,,,,,,,,,,,,,,,001,motor,1,0,2024-08-01_10h10.10.457,ASRT_motor,2023.2.3,142.18198154969247,
,2,180,3,1,red,sequences/_practice_sequence_00.csv,,,,,,,,,,,0,0,0,0,0,76,76,82,,,,,,,,,,,,,,,,,,,,,376.998780599999,,,,,,,,,,,,,376.9928521000038,376.998780599999,376.998780599999,377.1992883999992,377.5157965000035,1,1,0.5128498999984004,None,377.51648710000154,377.5221758999978,377.5221758999978,377.72774010000285,377.93596609999804,377.92979280000145,377.92982830000255,377.93596609999804,378.63068360000034,,,,,,,,,,,,,,,,,,,,,,,,,,,,,,,,,,,,,,,,,,,,,,,,,,,,,,,,,,,,,,,,001,motor,1,0,2024-08-01_10h10.10.457,ASRT_motor,2023.2.3,142.18198154969247,
,1,90,2,2,red,sequences/_practice_sequence_00.csv,,,,,,,,,,,0,0,0,0,0,77,77,37,,,,,,,,,,,,,,,,,,,,,378.6372521000012,,,,,,,,,,,,,378.6312532000011,378.6372521000012,378.6372521000012,378.83906299999944,379.1910879999996,2,1,0.5478147999965586,None,379.19209789999877,379.1982300000018,379.1982300000018,379.4011504000009,379.60984830000234,379.6040221000003,379.60407049999776,379.60984830000234,380.3044661000022,,,,,,,,,,,,,,,,,,,,,,,,,,,,,,,,,,,,,,,,,,,,,,,,,,,,,,,,,,,,,,,,001,motor,1,0,2024-08-01_10h10.10.457,ASRT_motor,2023.2.3,142.18198154969247,
,1,90,2,2,red,sequences/_practice_sequence_00.csv,,,,,,,,,,,0,0,0,0,0,78,78,49,,,,,,,,,,,,,,,,,,,,,380.31084869999904,,,,,,,,,,,,,380.3051831000048,380.31084869999904,380.31084869999904,380.51237240000046,380.7453916000013,1,0,0.43128949999663746,None,380.7460213000013,380.7643759999992,380.7643759999992,380.9571622000003,381.16496030000417,381.1592273999995,381.1592654999986,381.16496030000417,381.85982309999963,,,,,,,,,,,,,,,,,,,,,,,,,,,,,,,,,,,,,,,,,,,,,,,,,,,,,,,,,,,,,,,,001,motor,1,0,2024-08-01_10h10.10.457,ASRT_motor,2023.2.3,142.18198154969247,
,3,270,0,4,red,sequences/_practice_sequence_00.csv,,,,,,,,,,,0,0,0,0,0,79,79,51,,,,,,,,,,,,,,,,,,,,,381.8665699999983,,,,,,,,,,,,,381.86045210000157,381.8665699999983,381.8665699999983,382.0686638999978,382.3896184999976,4,1,0.5165894999954617,None,382.3902545000019,382.3969713999977,382.3969713999977,382.6027824999983,382.8108515999993,382.80485690000205,382.80488570000307,382.8108515999993,383.50580400000035,,,,,,,,,,,,,,,,,,,,,,,,,,,,,,,,,,,,,,,,,,,,,,,,,,,,,,,,,,,,,,,,001,motor,1,0,2024-08-01_10h10.10.457,ASRT_motor,2023.2.3,142.18198154969247,
,0,0,1,3,red,sequences/_practice_sequence_00.csv,,,,,,,,,,,0,0,0,0,0,80,80,20,,,,,,,,,,,,,,,,,,,,,383.51227970000036,,,,,,,,,,,,,383.5063722999985,383.51227970000036,383.51227970000036,383.714120800003,384.06369899999845,3,1,0.5429780999984359,None,384.06427509999776,384.0690825999991,384.0690825999991,384.27609640000446,384.4844049000021,384.4786344000022,384.47865000000456,384.4844049000021,385.1792509000006,,,,,,,,,,,,,,,,,,,,,,,,,,,,,,,,,,,,,,,,,,,,,,,,,,,,,,,,,,,,,,,,001,motor,1,0,2024-08-01_10h10.10.457,ASRT_motor,2023.2.3,142.18198154969247,
,3,270,0,4,red,sequences/_practice_sequence_00.csv,,,,,,,,,,,0,0,0,0,0,81,81,76,,,,,,,,,,,,,,,,,,,,,385.18855859999894,,,,,,,,,,,,,385.1799733000007,385.18855859999894,385.18855859999894,385.39421420000144,385.6868909000041,4,1,0.48592120000103023,None,385.68766029999824,385.69847010000376,385.69847010000376,385.9082864000011,386.1164314999987,386.1110301000008,386.11106070000096,386.1164314999987,386.81190290000086,386.81828540000424,,,,,,,,,,,,,,,,,,,,,,,,,,,,,,,,,,,,,,,,,,,,,,,,,,,,,,,,,,,,,,,001,motor,1,0,2024-08-01_10h10.10.457,ASRT_motor,2023.2.3,142.18198154969247,
,2,180,3,1,red,sequences/_practice_sequence_00.csv,,,,,,,,,,,0,0,0,0,0,82,82,30,,,,,,,,,,,,,,,,,,,,,386.81828540000424,,,,,,,,,,,,,386.8123854000005,386.81828540000424,386.81828540000424,387.0194849000036,387.32909310000105,1,1,0.5058497000063653,None,387.329742300004,387.34060280000267,387.34060280000267,387.5402256000016,387.7479741999996,387.7424419000017,387.74248210000223,387.7479741999996,388.44346020000376,,,,,,,,,,,,,,,,,,,,,,,,,,,,,,,,,,,,,,,,,,,,,,,,,,,,,,,,,,,,,,,,001,motor,1,0,2024-08-01_10h10.10.457,ASRT_motor,2023.2.3,142.18198154969247,
,1,90,2,2,red,sequences/_practice_sequence_00.csv,,,,,,,,,,,0,0,0,0,0,83,83,19,,,,,,,,,,,,,,,,,,,,,388.45173929999874,,,,,,,,,,,,,388.44434049999836,388.45173929999874,388.45173929999874,388.6515997000024,388.9587346000044,2,1,0.5025400000013178,None,388.95925870000065,388.9652375000005,388.9652375000005,389.17217879999953,389.3839044999986,389.3772509000046,389.3773274999985,389.3839044999986,390.0776842999985,390.0868541000018,,,,,,,,,,,,,,,,,,,,,,,,,,,,,,,,,,,,,,,,,,,,,,,,,,,,,,,,,,,,,,,001,motor,1,0,2024-08-01_10h10.10.457,ASRT_motor,2023.2.3,142.18198154969247,
,1,90,2,2,red,sequences/_practice_sequence_00.csv,,,,,,,,,,,0,0,0,0,0,84,84,8,,,,,,,,,,,,,,,,,,,,,390.0868541000018,,,,,,,,,,,,,390.0787754000048,390.0868541000018,390.0868541000018,390.2905937000032,390.5418299000012,2,1,0.44988610000291374,None,390.5423284999997,390.54776180000044,390.54776180000044,390.7551223999981,390.9640589000046,390.9579059000025,390.95795240000007,390.9640589000046,391.6584412000011,,,,,,,,,,,,,,,,,,,,,,,,,,,,,,,,,,,,,,,,,,,,,,,,,,,,,,,,,,,,,,,,001,motor,1,0,2024-08-01_10h10.10.457,ASRT_motor,2023.2.3,142.18198154969247,
,,,,,,sequences/_practice_sequence_00.csv,,,,,,,,,,,0,0,0,0,,,,,,,,,,,,,,,,,,,,,,,,,,,,,,,,,,,,,,,,,,,,,,,,,,,,,,,,,391.6586172000025,391.680612199998,391.680612199998,395.68596799999796,395.8548826000042,space,4.167185600002995,None,,,,,,,,,,,,,,,,,,,,,,,,,,,,,,,,,,,,,,,,,,,,,,,,,,,,,,,001,motor,1,0,2024-08-01_10h10.10.457,ASRT_motor,2023.2.3,142.18198154969247,
,2,180,3,1,red,sequences/_practice_sequence_01.csv,,,,,,,,,,,0,1,1,1,0,0,0,31,,,,,,,,,,,,,,,,,,,,,396.8894320000036,,,,,,,,,,395.85617179999826,395.8609995000006,396.85598250000476,396.8829165999996,396.8894320000036,396.8894320000036,397.0909604000044,397.416879299999,1,1,0.5208529000010458,None,397.41789869999775,397.4242038000011,397.4242038000011,397.6303044000015,397.83900859999994,397.83312619999924,397.83317949999764,397.83900859999994,398.53345220000483,398.53945470000326,,,,,,,,,,,,,,,,,396.8894320000036,,,,,,,,,,,,,,,,,,,,,,,,,,,,,,,,,,,,,,,,,,,,,,001,motor,1,0,2024-08-01_10h10.10.457,ASRT_motor,2023.2.3,142.18198154969247,
